Time [d]	Moisture mass integral [kg/m2]	T_left [C]	RH_left [%]	pv_left [Pa]	T_right [C]	RH_right [%]	pv_right [Pa]
0	0.300116	18	80	1650.23	18	80	1650.23
0.00694444	0.298519	11.7326	24.474	337.012	18.0573	80.1943	1660.21
0.0138889	0.298048	9.86539	27.2143	330.94	18.168	80.5413	1679.04
0.0208333	0.297723	8.62655	29.3536	328.358	18.2692	80.8101	1695.38
0.0277778	0.297471	7.7069	31.1127	326.942	18.3557	80.9578	1707.73
0.0347222	0.297262	6.97999	32.6073	326.02	18.4299	80.9796	1716.16
0.0416667	0.297082	6.39869	33.8737	325.404	18.4918	80.8661	1720.41
0.0486111	0.296913	5.88102	35.0535	324.905	18.5471	80.6793	1722.4
0.0555556	0.296756	5.44159	36.0971	324.533	18.5921	80.3974	1721.22
0.0625	0.296607	5.057	37.0422	324.234	18.6272	80.0467	1717.49
0.0694444	0.296463	4.71737	37.9031	323.997	18.6517	79.6454	1711.5
0.0763889	0.296323	4.4126	38.6962	323.796	18.6657	79.2094	1703.63
0.0833333	0.296187	4.14412	39.4117	323.631	18.6661	78.7546	1693.88
0.0902778	0.296052	3.8915	40.0994	323.482	18.6596	78.2829	1683.05
0.0972222	0.29592	3.66341	40.733	323.356	18.6412	77.8094	1670.95
0.104167	0.295791	3.45728	41.3159	323.248	18.6106	77.3464	1657.83
0.111111	0.295664	3.26622	41.8653	323.154	18.5707	76.8934	1644.01
0.118056	0.295539	3.08852	42.384	323.069	18.5223	76.4534	1629.65
0.125	0.295417	2.92271	42.8747	322.991	18.4659	76.0305	1614.92
0.131944	0.295297	2.76753	43.3401	322.921	18.4022	75.6269	1599.94
0.138889	0.295181	2.62191	43.7823	322.858	18.3317	75.2453	1584.84
0.145833	0.295066	2.48491	44.2031	322.8	18.2551	74.8864	1569.71
0.152778	0.294955	2.35571	44.6044	322.747	18.1729	74.5534	1554.69
0.159722	0.294847	2.23359	44.9876	322.699	18.0857	74.2448	1539.79
0.166667	0.294742	2.11793	45.3541	322.653	17.9941	73.9593	1525.06
0.173611	0.29464	2.00815	45.7053	322.612	17.8986	73.6962	1510.52
0.180556	0.294541	1.90376	46.0421	322.574	17.7995	73.4575	1496.26
0.1875	0.294444	1.80432	46.3656	322.538	17.6973	73.2419	1482.3
0.194444	0.294351	1.70941	46.6768	322.504	17.5925	73.0475	1468.62
0.201389	0.294261	1.61869	46.9766	322.472	17.4854	72.874	1455.25
0.208333	0.294174	1.53183	47.2657	322.442	17.3763	72.7202	1442.2
0.215278	0.29409	1.44853	47.5449	322.414	17.2655	72.5844	1429.46
0.222222	0.294009	1.36853	47.8149	322.387	17.1534	72.4656	1417.03
0.229167	0.29393	1.29159	48.0762	322.362	17.0401	72.3624	1404.89
0.236111	0.293854	1.21749	48.3294	322.338	16.926	72.2739	1393.05
0.243056	0.293781	1.14603	48.575	322.315	16.8112	72.1993	1381.52
0.25	0.293711	1.07703	48.8136	322.294	16.696	72.1373	1370.26
0.256944	0.293642	1.01033	49.0455	322.273	16.5805	72.0868	1359.28
0.263889	0.293577	0.945781	49.2711	322.253	16.4649	72.0471	1348.57
0.270833	0.293513	0.883239	49.4908	322.234	16.3493	72.0173	1338.13
0.277778	0.293452	0.822577	49.7052	322.216	16.2338	71.9969	1327.94
0.284722	0.293393	0.763686	49.9141	322.199	16.1187	71.9849	1318
0.291667	0.293337	0.706457	50.1181	322.182	16.0039	71.9809	1308.3
0.298611	0.293282	0.650794	50.3174	322.165	15.8896	71.9841	1298.83
0.305556	0.293229	0.596608	50.5124	322.149	15.7759	71.9941	1289.59
0.3125	0.293179	0.543817	50.7031	322.134	15.6629	72.0102	1280.58
0.319444	0.29313	0.492345	50.8899	322.119	15.5505	72.0322	1271.78
0.326389	0.293083	0.442124	51.0729	322.105	15.439	72.0592	1263.18
0.333333	0.293037	0.393089	51.2523	322.091	15.3283	72.0911	1254.79
0.340278	0.292994	0.345182	51.4282	322.077	15.2184	72.1275	1246.59
0.347222	0.292952	0.298347	51.6009	322.064	15.1095	72.168	1238.58
0.354167	0.292911	0.252536	51.7705	322.052	15.0015	72.2121	1230.75
0.361111	0.292872	0.207701	51.9371	322.039	14.8946	72.2596	1223.11
0.368056	0.292835	0.1638	52.1007	322.027	14.7886	72.3101	1215.63
0.375	0.292799	0.120792	52.2617	322.016	14.6837	72.3631	1208.31
0.381944	0.292764	0.0786403	52.42	322.004	14.5799	72.4189	1201.16
0.388889	0.292731	0.0373115	52.5757	321.993	14.4772	72.4772	1194.17
0.395833	0.292699	-0.00322703	52.7289	321.982	14.3755	72.5377	1187.33
0.402778	0.292668	-0.0430023	52.8899	321.971	14.275	72.6001	1180.64
0.409722	0.292639	-0.0820419	53.0585	321.959	14.1755	72.664	1174.09
0.416667	0.292611	-0.120375	53.2247	321.948	14.0772	72.7292	1167.68
0.423611	0.292584	-0.158026	53.3885	321.938	13.9801	72.7959	1161.4
0.430556	0.292558	-0.195017	53.5501	321.928	13.884	72.8639	1155.25
0.4375	0.292533	-0.231367	53.7093	321.917	13.7891	72.933	1149.24
0.444444	0.292509	-0.267098	53.8663	321.907	13.6953	73.0025	1143.34
0.451389	0.292486	-0.302227	54.0212	321.898	13.6027	73.0728	1137.56
0.458333	0.292465	-0.336774	54.174	321.888	13.5112	73.1438	1131.89
0.465278	0.292444	-0.370753	54.3248	321.879	13.4208	73.2153	1126.35
0.472222	0.292424	-0.404182	54.4735	321.87	13.3315	73.287	1120.9
0.479167	0.292405	-0.437073	54.6204	321.861	13.2433	73.3591	1115.57
0.486111	0.292387	-0.469442	54.7653	321.852	13.1563	73.4316	1110.34
0.493056	0.29237	-0.501301	54.9084	321.844	13.0703	73.5043	1105.21
0.5	0.292353	-0.532663	55.0496	321.836	12.9855	73.5764	1100.17
0.506944	0.292338	-0.563539	55.1891	321.828	12.9017	73.6479	1095.22
0.513889	0.292323	-0.593941	55.3268	321.82	12.819	73.7198	1090.37
0.520833	0.292308	-0.62388	55.4628	321.812	12.7374	73.7918	1085.61
0.527778	0.292295	-0.653365	55.5971	321.805	12.6569	73.8638	1080.94
0.534722	0.292282	-0.682407	55.7297	321.798	12.5774	73.9346	1076.35
0.541667	0.29227	-0.711015	55.8607	321.79	12.4989	74.0053	1071.84
0.548611	0.292258	-0.739197	55.9901	321.784	12.4215	74.0759	1067.42
0.555556	0.292247	-0.766962	56.1179	321.777	12.3451	74.1464	1063.08
0.5625	0.292237	-0.794319	56.2441	321.77	12.2697	74.2162	1058.81
0.569444	0.292227	-0.821275	56.3688	321.763	12.1953	74.2854	1054.62
0.576389	0.292217	-0.847838	56.492	321.757	12.1218	74.3542	1050.51
0.583333	0.292209	-0.874015	56.6137	321.751	12.0494	74.4226	1046.47
0.590278	0.2922	-0.899814	56.7339	321.745	11.9779	74.4906	1042.5
0.597222	0.292193	-0.92524	56.8527	321.739	11.9074	74.5576	1038.59
0.604167	0.292185	-0.950301	56.97	321.733	11.8379	74.624	1034.76
0.611111	0.292178	-0.975003	57.086	321.727	11.7692	74.69	1030.99
0.618056	0.292172	-0.999352	57.2005	321.722	11.7015	74.7554	1027.28
0.625	0.292166	-1.02335	57.3136	321.716	11.6347	74.8199	1023.64
0.631944	0.292161	-1.04701	57.4253	321.71	11.5688	74.8838	1020.06
0.638889	0.292156	-1.07034	57.5357	321.705	11.5038	74.9471	1016.54
0.645833	0.292151	-1.09333	57.6448	321.7	11.4397	75.0098	1013.07
0.652778	0.292147	-1.116	57.7525	321.695	11.3764	75.0717	1009.67
0.659722	0.292143	-1.13835	57.859	321.689	11.314	75.1328	1006.32
0.666667	0.292139	-1.16039	57.9642	321.684	11.2524	75.1933	1003.03
0.673611	0.292136	-1.18212	58.0681	321.679	11.1917	75.2533	999.789
0.680556	0.292133	-1.20354	58.1707	321.675	11.1318	75.3128	996.608
0.6875	0.292131	-1.22466	58.2722	321.67	11.0727	75.3712	993.475
0.694444	0.292129	-1.24549	58.3724	321.665	11.0144	75.4289	990.392
0.701389	0.292127	-1.26602	58.4713	321.661	10.9569	75.4861	987.362
0.708333	0.292125	-1.28627	58.5691	321.656	10.9002	75.5426	984.382
0.715278	0.292124	-1.30624	58.6657	321.652	10.8443	75.5986	981.45
0.722222	0.292123	-1.32593	58.7612	321.648	10.7891	75.6537	978.565
0.729167	0.292122	-1.34534	58.8554	321.644	10.7347	75.708	975.725
0.736111	0.292122	-1.36449	58.9486	321.64	10.681	75.7617	972.93
0.743056	0.292122	-1.38337	59.0406	321.636	10.628	75.8149	970.184
0.75	0.292122	-1.40199	59.1315	321.632	10.5758	75.8677	967.484
0.756944	0.292123	-1.42035	59.2213	321.628	10.5243	75.9196	964.824
0.763889	0.292123	-1.43845	59.3099	321.624	10.4735	75.9708	962.207
0.770833	0.292124	-1.45631	59.3976	321.62	10.4233	76.0214	959.631
0.777778	0.292125	-1.47392	59.4841	321.617	10.3739	76.0713	957.096
0.784722	0.292126	-1.49128	59.5696	321.613	10.3252	76.1207	954.603
0.791667	0.292128	-1.50841	59.654	321.61	10.2771	76.1697	952.15
0.798611	0.29213	-1.52529	59.7374	321.606	10.2296	76.218	949.737
0.805556	0.292132	-1.54195	59.8198	321.603	10.1828	76.2655	947.359
0.8125	0.292134	-1.55837	59.9012	321.6	10.1367	76.3124	945.019
0.819444	0.292136	-1.57457	59.9815	321.597	10.0912	76.3587	942.716
0.826389	0.292139	-1.59055	60.0609	321.593	10.0463	76.4046	940.451
0.833333	0.292141	-1.6063	60.1393	321.59	10.002	76.4499	938.221
0.840278	0.292144	-1.62184	60.2168	321.587	9.95832	76.4944	936.024
0.847222	0.292147	-1.63717	60.2933	321.585	9.91524	76.5386	933.865
0.854167	0.29215	-1.65228	60.3688	321.582	9.87275	76.5822	931.739
0.861111	0.292153	-1.66719	60.4434	321.579	9.83085	76.6255	929.648
0.868056	0.292157	-1.68189	60.5171	321.576	9.78952	76.6681	927.589
0.875	0.29216	-1.69638	60.5899	321.574	9.74875	76.7103	925.563
0.881944	0.292164	-1.71068	60.6617	321.571	9.70854	76.7519	923.569
0.888889	0.292168	-1.72478	60.7326	321.568	9.66888	76.7929	921.604
0.895833	0.292172	-1.73869	60.8027	321.565	9.62976	76.8333	919.669
0.902778	0.292176	-1.75241	60.8719	321.563	9.59118	76.8733	917.765
0.909722	0.29218	-1.76594	60.9402	321.56	9.55313	76.9128	915.89
0.916667	0.292185	-1.77928	61.0077	321.558	9.51559	76.9519	914.045
0.923611	0.292189	-1.79244	61.0743	321.555	9.47857	76.9905	912.229
0.930556	0.292194	-1.80541	61.1401	321.553	9.44206	77.0283	910.437
0.9375	0.292199	-1.81821	61.205	321.551	9.40605	77.0657	908.675
0.944444	0.292203	-1.83084	61.2692	321.548	9.37053	77.1028	906.94
0.951389	0.292208	-1.84329	61.3325	321.546	9.3355	77.1393	905.232
0.958333	0.292213	-1.85557	61.395	321.544	9.30095	77.1755	903.551
0.965278	0.292219	-1.86768	61.4568	321.542	9.26687	77.2113	901.897
0.972222	0.292224	-1.87962	61.5177	321.539	9.23326	77.2467	900.269
0.979167	0.292229	-1.8914	61.5779	321.537	9.20011	77.2818	898.666
0.986111	0.292235	-1.90302	61.6374	321.535	9.16741	77.3165	897.089
0.993056	0.29224	-1.91448	61.6961	321.533	9.13516	77.3505	895.534
1	0.292246	-1.92578	61.754	321.531	9.10335	77.3843	894.004
1.00694	0.292251	-1.93693	61.8112	321.529	9.07198	77.4177	892.499
1.01389	0.292257	-1.94792	61.8677	321.527	9.04103	77.4506	891.015
1.02083	0.292263	-1.95876	61.9235	321.526	9.01051	77.4832	889.555
1.02778	0.292269	-1.96946	61.9785	321.524	8.98041	77.5154	888.117
1.03472	0.292275	-1.98001	62.0329	321.522	8.95072	77.5471	886.7
1.04167	0.292281	-1.99041	62.0865	321.52	8.92143	77.5782	885.302
1.04861	0.292287	-2.00067	62.1395	321.519	8.89254	77.6091	883.927
1.05556	0.292294	-2.01079	62.1918	321.517	8.86405	77.6396	882.573
1.0625	0.2923	-2.02077	62.2435	321.515	8.83595	77.6696	881.238
1.06944	0.292306	-2.03061	62.2944	321.514	8.80824	77.6993	879.924
1.07639	0.292313	-2.04032	62.3447	321.512	8.7809	77.7286	878.63
1.08333	0.292319	-2.0499	62.3944	321.51	8.75394	77.7577	877.356
1.09028	0.292326	-2.05934	62.4435	321.509	8.72735	77.7864	876.102
1.09722	0.292332	-2.06866	62.4919	321.507	8.70112	77.8148	874.868
1.10417	0.292339	-2.07785	62.5397	321.506	8.67525	77.843	873.653
1.11111	0.292346	-2.08691	62.5868	321.505	8.64974	77.8707	872.456
1.11806	0.292352	-2.09584	62.6334	321.503	8.62458	77.8981	871.276
1.125	0.292359	-2.10466	62.6794	321.502	8.59976	77.9252	870.115
1.13194	0.292366	-2.11335	62.7247	321.5	8.57528	77.952	868.972
1.13889	0.292373	-2.12193	62.7695	321.499	8.55113	77.9785	867.846
1.14583	0.29238	-2.13038	62.8138	321.498	8.52732	78.0047	866.738
1.15278	0.292387	-2.13873	62.8574	321.497	8.50383	78.0307	865.647
1.15972	0.292394	-2.14695	62.9005	321.495	8.48066	78.0564	864.573
1.16667	0.292401	-2.15507	62.943	321.494	8.45781	78.0817	863.513
1.17361	0.292408	-2.16307	62.985	321.493	8.43527	78.1067	862.47
1.18056	0.292415	-2.17096	63.0264	321.492	8.41304	78.1313	861.442
1.1875	0.292422	-2.17875	63.0673	321.491	8.39112	78.1558	860.43
1.19444	0.292429	-2.18643	63.1076	321.489	8.36949	78.18	859.434
1.20139	0.292437	-2.194	63.1475	321.488	8.34816	78.2038	858.452
1.20833	0.292444	-2.20147	63.1868	321.487	8.32712	78.2273	857.485
1.21528	0.292451	-2.20884	63.2256	321.486	8.30637	78.2507	856.533
1.22222	0.292459	-2.21611	63.2639	321.485	8.2859	78.2737	855.595
1.22917	0.292466	-2.22327	63.3017	321.484	8.26572	78.2965	854.671
1.23611	0.292473	-2.23034	63.339	321.483	8.2458	78.3189	853.761
1.24306	0.292481	-2.23731	63.3759	321.482	8.22616	78.3411	852.863
1.25	0.292488	-2.24419	63.4122	321.481	8.20679	78.363	851.979
1.25694	0.292496	-2.25097	63.4481	321.48	8.18769	78.3846	851.108
1.26389	0.292503	-2.25766	63.4835	321.479	8.16884	78.4058	850.249
1.27083	0.29251	-2.26426	63.5184	321.479	8.15025	78.4269	849.403
1.27778	0.292518	-2.27077	63.5529	321.478	8.13192	78.4477	848.57
1.28472	0.292525	-2.27719	63.5869	321.477	8.11383	78.4683	847.749
1.29167	0.292533	-2.28352	63.6205	321.476	8.096	78.4886	846.94
1.29861	0.292541	-2.28976	63.6537	321.475	8.07841	78.5087	846.144
1.30556	0.292548	-2.29592	63.6864	321.474	8.06106	78.5285	845.359
1.3125	0.292556	-2.30199	63.7187	321.474	8.04395	78.5482	844.587
1.31944	0.292563	-2.30799	63.7506	321.473	8.02707	78.5677	843.827
1.32639	0.292571	-2.31389	63.782	321.472	8.01043	78.587	843.078
1.33333	0.292578	-2.31972	63.813	321.471	7.99401	78.6059	842.339
1.34028	0.292586	-2.32547	63.8437	321.471	7.97782	78.6247	841.613
1.34722	0.292594	-2.33114	63.8739	321.47	7.96184	78.6434	840.897
1.35417	0.292601	-2.33673	63.9037	321.469	7.94609	78.6618	840.192
1.36111	0.292609	-2.34225	63.9331	321.469	7.93055	78.68	839.498
1.36806	0.292616	-2.34769	63.9621	321.468	7.91522	78.698	838.814
1.375	0.292624	-2.35305	63.9908	321.467	7.90011	78.7158	838.139
1.38194	0.292632	-2.35835	64.0191	321.467	7.8852	78.7333	837.475
1.38889	0.292639	-2.36356	64.047	321.466	7.87049	78.7507	836.821
1.39583	0.292647	-2.36871	64.0745	321.465	7.85599	78.768	836.177
1.40278	0.292655	-2.37379	64.1017	321.465	7.84168	78.785	835.543
1.40972	0.292662	-2.3788	64.1285	321.464	7.82757	78.8019	834.919
1.41667	0.29267	-2.38374	64.155	321.463	7.81365	78.8187	834.304
1.42361	0.292678	-2.38861	64.1811	321.463	7.79992	78.8352	833.699
1.43056	0.292686	-2.39342	64.2068	321.462	7.78638	78.8515	833.101
1.4375	0.292693	-2.39816	64.2323	321.462	7.77302	78.8676	832.513
1.44444	0.292701	-2.40283	64.2573	321.461	7.75985	78.8836	831.933
1.45139	0.292709	-2.40744	64.2821	321.461	7.74685	78.8993	831.362
1.45833	0.292716	-2.41199	64.3065	321.46	7.73404	78.9148	830.799
1.46528	0.292724	-2.41647	64.3306	321.459	7.7214	78.9301	830.244
1.47222	0.292732	-2.4209	64.3544	321.459	7.70893	78.9453	829.697
1.47917	0.29274	-2.42526	64.3779	321.458	7.69663	78.9604	829.159
1.48611	0.292747	-2.42957	64.4011	321.458	7.6845	78.9753	828.629
1.49306	0.292755	-2.43381	64.4239	321.458	7.67253	78.99	828.107
1.5	0.292763	-2.438	64.4465	321.457	7.66073	79.0045	827.593
1.50694	0.29277	-2.44213	64.4687	321.457	7.64909	79.0189	827.086
1.51389	0.292778	-2.4462	64.4907	321.456	7.63761	79.0331	826.586
1.52083	0.292786	-2.45022	64.5123	321.456	7.62628	79.047	826.093
1.52778	0.292793	-2.45418	64.5337	321.455	7.61511	79.0608	825.607
1.53472	0.292801	-2.45809	64.5548	321.455	7.60409	79.0745	825.128
1.54167	0.292809	-2.46194	64.5756	321.454	7.59323	79.0879	824.657
1.54861	0.292817	-2.46575	64.5961	321.454	7.58251	79.1013	824.192
1.55556	0.292824	-2.4695	64.6164	321.454	7.57193	79.1143	823.732
1.5625	0.292832	-2.4732	64.6364	321.453	7.56151	79.1272	823.28
1.56944	0.29284	-2.47684	64.6561	321.453	7.55122	79.14	822.835
1.57639	0.292847	-2.48044	64.6756	321.453	7.54107	79.1526	822.396
1.58333	0.292855	-2.48399	64.6948	321.452	7.53106	79.1651	821.963
1.59028	0.292862	-2.48749	64.7137	321.452	7.52119	79.1775	821.537
1.59722	0.29287	-2.49095	64.7324	321.452	7.51146	79.1897	821.117
1.60417	0.292878	-2.49435	64.7509	321.451	7.50185	79.2017	820.703
1.61111	0.292885	-2.49771	64.7691	321.451	7.49238	79.2136	820.295
1.61806	0.292893	-2.50102	64.787	321.451	7.48304	79.2252	819.892
1.625	0.292901	-2.50429	64.8048	321.45	7.47382	79.2367	819.494
1.63194	0.292908	-2.50751	64.8222	321.45	7.46473	79.2481	819.103
1.63889	0.292916	-2.51069	64.8395	321.45	7.45577	79.2593	818.717
1.64583	0.292923	-2.51383	64.8565	321.449	7.44692	79.2704	818.337
1.65278	0.292931	-2.51692	64.8733	321.449	7.4382	79.2814	817.962
1.65972	0.292938	-2.51997	64.8899	321.449	7.4296	79.2923	817.593
1.66667	0.292946	-2.52298	64.9062	321.449	7.42112	79.303	817.23
1.67361	0.292953	-2.52595	64.9223	321.448	7.41275	79.3137	816.872
1.68056	0.292961	-2.52888	64.9383	321.448	7.40449	79.3242	816.519
1.6875	0.292968	-2.53177	64.954	321.448	7.39635	79.3347	816.172
1.69444	0.292976	-2.53461	64.9695	321.448	7.38832	79.345	815.831
1.70139	0.292983	-2.53742	64.9847	321.447	7.38041	79.3553	815.494
1.70833	0.292991	-2.54019	64.9998	321.447	7.37259	79.3654	815.162
1.71528	0.292998	-2.54293	65.0147	321.447	7.36489	79.3754	814.835
1.72222	0.293006	-2.54562	65.0294	321.447	7.35729	79.3853	814.513
1.72917	0.293013	-2.54828	65.0439	321.447	7.34979	79.3951	814.196
1.73611	0.293021	-2.5509	65.0582	321.446	7.3424	79.4048	813.883
1.74306	0.293028	-2.55349	65.0723	321.446	7.33511	79.4143	813.575
1.75	0.293035	-2.55604	65.0862	321.446	7.32791	79.4238	813.271
1.75694	0.293043	-2.55856	65.0999	321.446	7.32082	79.4331	812.972
1.76389	0.29305	-2.56104	65.1134	321.446	7.31382	79.4424	812.677
1.77083	0.293057	-2.56349	65.1268	321.446	7.30692	79.4515	812.387
1.77778	0.293065	-2.5659	65.14	321.445	7.30011	79.4606	812.101
1.78472	0.293072	-2.56828	65.153	321.445	7.29339	79.4695	811.819
1.79167	0.293079	-2.57063	65.1658	321.445	7.28677	79.4784	811.542
1.79861	0.293087	-2.57295	65.1785	321.445	7.28024	79.4872	811.269
1.80556	0.293094	-2.57524	65.1909	321.445	7.27379	79.4959	811
1.8125	0.293101	-2.57749	65.2033	321.445	7.26744	79.5046	810.735
1.81944	0.293109	-2.57971	65.2154	321.445	7.26117	79.5131	810.474
1.82639	0.293116	-2.58191	65.2274	321.444	7.25498	79.5215	810.216
1.83333	0.293123	-2.58407	65.2392	321.444	7.24888	79.5299	809.963
1.84028	0.29313	-2.5862	65.2509	321.444	7.24287	79.5381	809.713
1.84722	0.293137	-2.58831	65.2624	321.444	7.23693	79.5462	809.467
1.85417	0.293145	-2.59038	65.2738	321.444	7.23108	79.5543	809.224
1.86111	0.293152	-2.59243	65.285	321.444	7.2253	79.5622	808.985
1.86806	0.293159	-2.59445	65.2961	321.444	7.21961	79.57	808.749
1.875	0.293166	-2.59644	65.307	321.444	7.21399	79.5778	808.516
1.88194	0.293173	-2.59841	65.3177	321.444	7.20845	79.5855	808.287
1.88889	0.29318	-2.60035	65.3283	321.443	7.20298	79.593	808.062
1.89583	0.293187	-2.60226	65.3388	321.443	7.19759	79.6005	807.84
1.90278	0.293195	-2.60414	65.3492	321.443	7.19228	79.6079	807.62
1.90972	0.293202	-2.606	65.3594	321.443	7.18703	79.6152	807.404
1.91667	0.293209	-2.60784	65.3694	321.443	7.18186	79.6224	807.19
1.92361	0.293216	-2.60964	65.3793	321.443	7.17675	79.6295	806.98
1.93056	0.293223	-2.61143	65.3891	321.443	7.17172	79.6366	806.774
1.9375	0.29323	-2.61319	65.3988	321.443	7.16676	79.6436	806.57
1.94444	0.293237	-2.61493	65.4083	321.443	7.16186	79.6505	806.369
1.95139	0.293244	-2.61664	65.4177	321.443	7.15703	79.6573	806.171
1.95833	0.293251	-2.61833	65.427	321.443	7.15226	79.664	805.976
1.96528	0.293258	-2.61999	65.4362	321.443	7.14756	79.6707	805.784
1.97222	0.293265	-2.62164	65.4452	321.443	7.14293	79.6773	805.595
1.97917	0.293271	-2.62326	65.4541	321.443	7.13835	79.6838	805.408
1.98611	0.293278	-2.62486	65.4629	321.443	7.13384	79.6903	805.224
1.99306	0.293285	-2.62643	65.4715	321.443	7.12939	79.6966	805.043
2	0.293292	-2.62799	65.4801	321.443	7.12501	79.7029	804.865
2.00694	0.293299	-2.62952	65.4885	321.442	7.12068	79.7091	804.688
2.01389	0.293306	-2.63104	65.4969	321.442	7.11641	79.7153	804.515
2.02083	0.293313	-2.63253	65.5051	321.442	7.1122	79.7213	804.343
2.02778	0.293319	-2.634	65.5132	321.442	7.10804	79.7272	804.174
2.03472	0.293326	-2.63545	65.5212	321.442	7.10394	79.7331	804.007
2.04167	0.293333	-2.63689	65.5291	321.442	7.0999	79.7389	803.843
2.04861	0.29334	-2.6383	65.5368	321.442	7.09592	79.7446	803.681
2.05556	0.293346	-2.63969	65.5445	321.442	7.09198	79.7503	803.522
2.0625	0.293353	-2.64107	65.5521	321.442	7.08811	79.7559	803.364
2.06944	0.29336	-2.64242	65.5596	321.442	7.08428	79.7614	803.209
2.07639	0.293366	-2.64376	65.5669	321.442	7.08051	79.7669	803.056
2.08333	0.293373	-2.64508	65.5742	321.442	7.07678	79.7723	802.906
2.09028	0.29338	-2.64638	65.5814	321.442	7.07311	79.7776	802.757
2.09722	0.293386	-2.64766	65.5884	321.442	7.06949	79.7829	802.611
2.10417	0.293393	-2.64893	65.5954	321.442	7.06592	79.7881	802.467
2.11111	0.2934	-2.65018	65.6023	321.442	7.06239	79.7933	802.324
2.11806	0.293406	-2.65141	65.6091	321.442	7.05892	79.7983	802.184
2.125	0.293413	-2.65263	65.6158	321.442	7.05549	79.8034	802.046
2.13194	0.293419	-2.65382	65.6224	321.442	7.05211	79.8083	801.91
2.13889	0.293426	-2.65501	65.6289	321.442	7.04877	79.8132	801.776
2.14583	0.293432	-2.65617	65.6354	321.442	7.04548	79.8181	801.644
2.15278	0.293439	-2.65732	65.6417	321.442	7.04224	79.8229	801.513
2.15972	0.293445	-2.65846	65.648	321.442	7.03904	79.8276	801.385
2.16667	0.293452	-2.65958	65.6542	321.443	7.03588	79.8323	801.258
2.17361	0.293458	-2.66068	65.6603	321.443	7.03276	79.8369	801.133
2.18056	0.293465	-2.66177	65.6663	321.443	7.02969	79.8414	801.01
2.1875	0.293471	-2.66284	65.6722	321.443	7.02666	79.8459	800.888
2.19444	0.293477	-2.6639	65.6781	321.443	7.02367	79.8504	800.769
2.20139	0.293484	-2.66495	65.6839	321.443	7.02072	79.8547	800.65
2.20833	0.29349	-2.66598	65.6896	321.443	7.01781	79.8591	800.534
2.21528	0.293496	-2.66699	65.6952	321.443	7.01494	79.8633	800.419
2.22222	0.293503	-2.668	65.7007	321.443	7.01211	79.8676	800.306
2.22917	0.293509	-2.66898	65.7062	321.443	7.00932	79.8717	800.195
2.23611	0.293515	-2.66996	65.7116	321.443	7.00657	79.8758	800.085
2.24306	0.293521	-2.67092	65.7169	321.443	7.00385	79.8799	799.976
2.25	0.293528	-2.67187	65.7222	321.443	7.00118	79.8839	799.869
2.25694	0.293534	-2.67281	65.7274	321.443	6.99853	79.8878	799.764
2.26389	0.29354	-2.67373	65.7325	321.443	6.99593	79.8918	799.66
2.27083	0.293546	-2.67464	65.7375	321.443	6.99336	79.8956	799.557
2.27778	0.293552	-2.67554	65.7425	321.443	6.99082	79.8994	799.456
2.28472	0.293559	-2.67643	65.7474	321.443	6.98832	79.9032	799.357
2.29167	0.293565	-2.6773	65.7522	321.443	6.98585	79.9069	799.258
2.29861	0.293571	-2.67816	65.757	321.443	6.98342	79.9105	799.161
2.30556	0.293577	-2.67901	65.7617	321.443	6.98102	79.9141	799.066
2.3125	0.293583	-2.67985	65.7664	321.443	6.97865	79.9177	798.971
2.31944	0.293589	-2.68068	65.771	321.443	6.97631	79.9212	798.878
2.32639	0.293595	-2.6815	65.7755	321.444	6.97401	79.9246	798.786
2.33333	0.293601	-2.6823	65.78	321.444	6.97174	79.9281	798.696
2.34028	0.293607	-2.6831	65.7844	321.444	6.96949	79.9314	798.607
2.34722	0.293613	-2.68388	65.7887	321.444	6.96728	79.9348	798.519
2.35417	0.293619	-2.68465	65.793	321.444	6.9651	79.9381	798.433
2.36111	0.293625	-2.68542	65.7972	321.444	6.96295	79.9413	798.347
2.36806	0.293631	-2.68617	65.8014	321.444	6.96083	79.9446	798.263
2.375	0.293637	-2.68691	65.8055	321.444	6.95873	79.9477	798.18
2.38194	0.293643	-2.68764	65.8096	321.444	6.95667	79.9509	798.098
2.38889	0.293649	-2.68836	65.8136	321.444	6.95463	79.954	798.018
2.39583	0.293654	-2.68907	65.8176	321.444	6.95262	79.957	797.938
2.40278	0.29366	-2.68978	65.8215	321.444	6.95064	79.9601	797.86
2.40972	0.293666	-2.69047	65.8253	321.444	6.94869	79.9631	797.783
2.41667	0.293672	-2.69115	65.8291	321.444	6.94676	79.966	797.706
2.42361	0.293678	-2.69183	65.8329	321.445	6.94486	79.9689	797.631
2.43056	0.293683	-2.69249	65.8366	321.445	6.94298	79.9718	797.557
2.4375	0.293689	-2.69315	65.8402	321.445	6.94113	79.9746	797.484
2.44444	0.293695	-2.69379	65.8438	321.445	6.93931	79.9774	797.412
2.45139	0.293701	-2.69443	65.8473	321.445	6.93751	79.9802	797.341
2.45833	0.293706	-2.69506	65.8509	321.445	6.93573	79.983	797.271
2.46528	0.293712	-2.69568	65.8543	321.445	6.93398	79.9857	797.202
2.47222	0.293718	-2.69629	65.8577	321.445	6.93225	79.9883	797.134
2.47917	0.293723	-2.6969	65.8611	321.445	6.93054	79.9909	797.067
2.48611	0.293729	-2.69749	65.8644	321.445	6.92886	79.9935	797.001
2.49306	0.293735	-2.69808	65.8677	321.445	6.9272	79.9961	796.936
2.5	0.29374	-2.69866	65.8709	321.445	6.92557	79.9986	796.872
2.50694	0.293746	-2.69923	65.8741	321.446	6.92396	80.0011	796.808
2.51389	0.293751	-2.6998	65.8772	321.446	6.92236	80.0036	796.746
2.52083	0.293757	-2.70035	65.8803	321.446	6.92079	80.006	796.684
2.52778	0.293762	-2.7009	65.8834	321.446	6.91924	80.0084	796.623
2.53472	0.293768	-2.70144	65.8864	321.446	6.91772	80.0108	796.563
2.54167	0.293773	-2.70198	65.8894	321.446	6.91621	80.0132	796.504
2.54861	0.293779	-2.70251	65.8923	321.446	6.91472	80.0155	796.446
2.55556	0.293784	-2.70302	65.8952	321.446	6.91326	80.0178	796.389
2.5625	0.29379	-2.70354	65.8981	321.446	6.91181	80.02	796.332
2.56944	0.293795	-2.70404	65.9009	321.446	6.91038	80.0222	796.276
2.57639	0.293801	-2.70454	65.9037	321.446	6.90898	80.0244	796.221
2.58333	0.293806	-2.70503	65.9064	321.447	6.90759	80.0266	796.167
2.59028	0.293811	-2.70552	65.9091	321.447	6.90622	80.0288	796.113
2.59722	0.293817	-2.706	65.9118	321.447	6.90487	80.0309	796.06
2.60417	0.293822	-2.70647	65.9145	321.447	6.90354	80.033	796.008
2.61111	0.293827	-2.70694	65.9171	321.447	6.90222	80.035	795.957
2.61806	0.293833	-2.7074	65.9196	321.447	6.90093	80.0371	795.907
2.625	0.293838	-2.70785	65.9222	321.447	6.89965	80.0391	795.857
2.63194	0.293843	-2.7083	65.9247	321.447	6.89839	80.0411	795.807
2.63889	0.293849	-2.70874	65.9271	321.447	6.89714	80.043	795.759
2.64583	0.293854	-2.70917	65.9296	321.447	6.89592	80.045	795.711
2.65278	0.293859	-2.7096	65.932	321.448	6.8947	80.0469	795.664
2.65972	0.293864	-2.71002	65.9343	321.448	6.89351	80.0488	795.617
2.66667	0.293869	-2.71044	65.9367	321.448	6.89233	80.0506	795.571
2.67361	0.293875	-2.71085	65.939	321.448	6.89117	80.0525	795.526
2.68056	0.29388	-2.71126	65.9412	321.448	6.89002	80.0543	795.482
2.6875	0.293885	-2.71166	65.9435	321.448	6.88889	80.056	795.438
2.69444	0.29389	-2.71206	65.9457	321.448	6.88778	80.0578	795.394
2.70139	0.293895	-2.71245	65.9479	321.448	6.88668	80.0595	795.351
2.70833	0.2939	-2.71283	65.95	321.448	6.88559	80.0613	795.309
2.71528	0.293905	-2.71321	65.9522	321.448	6.88452	80.063	795.268
2.72222	0.29391	-2.71359	65.9543	321.449	6.88347	80.0646	795.227
2.72917	0.293916	-2.71395	65.9563	321.449	6.88243	80.0663	795.186
2.73611	0.293921	-2.71432	65.9584	321.449	6.8814	80.0679	795.146
2.74306	0.293926	-2.71468	65.9604	321.449	6.88039	80.0695	795.107
2.75	0.293931	-2.71503	65.9624	321.449	6.87939	80.0711	795.068
2.75694	0.293936	-2.71538	65.9643	321.449	6.8784	80.0727	795.03
2.76389	0.293941	-2.71573	65.9663	321.449	6.87743	80.0743	794.992
2.77083	0.293945	-2.71607	65.9682	321.449	6.87647	80.0758	794.955
2.77778	0.29395	-2.7164	65.9701	321.449	6.87552	80.0773	794.919
2.78472	0.293955	-2.71673	65.9719	321.45	6.87459	80.0788	794.882
2.79167	0.29396	-2.71706	65.9738	321.45	6.87367	80.0803	794.847
2.79861	0.293965	-2.71738	65.9756	321.45	6.87276	80.0818	794.812
2.80556	0.29397	-2.7177	65.9774	321.45	6.87186	80.0832	794.777
2.8125	0.293975	-2.71801	65.9791	321.45	6.87098	80.0846	794.743
2.81944	0.29398	-2.71832	65.9809	321.45	6.87011	80.086	794.709
2.82639	0.293985	-2.71863	65.9826	321.45	6.86925	80.0874	794.676
2.83333	0.293989	-2.71893	65.9843	321.45	6.8684	80.0888	794.644
2.84028	0.293994	-2.71923	65.9859	321.45	6.86756	80.0902	794.611
2.84722	0.293999	-2.71952	65.9876	321.451	6.86674	80.0915	794.58
2.85417	0.294004	-2.71981	65.9892	321.451	6.86592	80.0928	794.548
2.86111	0.294008	-2.72009	65.9908	321.451	6.86512	80.0941	794.517
2.86806	0.294013	-2.72037	65.9924	321.451	6.86433	80.0954	794.487
2.875	0.294018	-2.72065	65.994	321.451	6.86355	80.0967	794.457
2.88194	0.294023	-2.72092	65.9955	321.451	6.86278	80.098	794.427
2.88889	0.294027	-2.72119	65.997	321.451	6.86201	80.0992	794.398
2.89583	0.294032	-2.72146	65.9985	321.451	6.86126	80.1004	794.369
2.90278	0.294037	-2.72172	66	321.451	6.86052	80.1016	794.341
2.90972	0.294041	-2.72198	66.0015	321.452	6.8598	80.1028	794.313
2.91667	0.294046	-2.72224	66.0029	321.452	6.85908	80.104	794.285
2.92361	0.294051	-2.72249	66.0043	321.452	6.85836	80.1051	794.258
2.93056	0.294055	-2.72274	66.0057	321.452	6.85766	80.1063	794.231
2.9375	0.29406	-2.72298	66.0071	321.452	6.85697	80.1074	794.205
2.94444	0.294064	-2.72323	66.0085	321.452	6.85629	80.1085	794.178
2.95139	0.294069	-2.72346	66.0098	321.452	6.85562	80.1096	794.153
2.95833	0.294074	-2.7237	66.0112	321.452	6.85496	80.1107	794.127
2.96528	0.294078	-2.72393	66.0125	321.452	6.8543	80.1118	794.102
2.97222	0.294083	-2.72416	66.0138	321.453	6.85366	80.1129	794.078
2.97917	0.294087	-2.72439	66.015	321.453	6.85302	80.1139	794.053
2.98611	0.294092	-2.72461	66.0163	321.453	6.85239	80.115	794.029
2.99306	0.294096	-2.72483	66.0176	321.453	6.85177	80.116	794.006
3	0.2941	-2.72505	66.0188	321.453	6.85116	80.117	793.982
3.00694	0.294105	-2.72526	66.02	321.453	6.85056	80.118	793.96
3.01389	0.294109	-2.72547	66.0212	321.453	6.84996	80.119	793.937
3.02083	0.294114	-2.72568	66.0224	321.453	6.84938	80.12	793.915
3.02778	0.294118	-2.72589	66.0235	321.453	6.8488	80.1209	793.893
3.03472	0.294123	-2.72609	66.0247	321.454	6.84823	80.1219	793.871
3.04167	0.294127	-2.72629	66.0258	321.454	6.84766	80.1228	793.849
3.04861	0.294131	-2.72649	66.0269	321.454	6.84711	80.1238	793.828
3.05556	0.294136	-2.72668	66.028	321.454	6.84656	80.1247	793.808
3.0625	0.29414	-2.72687	66.0291	321.454	6.84602	80.1256	793.787
3.06944	0.294144	-2.72706	66.0302	321.454	6.84549	80.1265	793.767
3.07639	0.294149	-2.72725	66.0313	321.454	6.84496	80.1274	793.747
3.08333	0.294153	-2.72743	66.0323	321.454	6.84444	80.1282	793.727
3.09028	0.294157	-2.72761	66.0333	321.455	6.84393	80.1291	793.708
3.09722	0.294161	-2.72779	66.0344	321.455	6.84343	80.13	793.689
3.10417	0.294166	-2.72797	66.0354	321.455	6.84293	80.1308	793.67
3.11111	0.29417	-2.72815	66.0364	321.455	6.84244	80.1316	793.652
3.11806	0.294174	-2.72832	66.0373	321.455	6.84195	80.1324	793.633
3.125	0.294178	-2.72849	66.0383	321.455	6.84147	80.1333	793.615
3.13194	0.294183	-2.72866	66.0393	321.455	6.841	80.1341	793.597
3.13889	0.294187	-2.72882	66.0402	321.455	6.84054	80.1349	793.58
3.14583	0.294191	-2.72898	66.0411	321.455	6.84008	80.1356	793.563
3.15278	0.294195	-2.72914	66.0421	321.456	6.83963	80.1364	793.546
3.15972	0.294199	-2.7293	66.043	321.456	6.83918	80.1372	793.529
3.16667	0.294203	-2.72946	66.0438	321.456	6.83874	80.1379	793.512
3.17361	0.294208	-2.72961	66.0447	321.456	6.83831	80.1387	793.496
3.18056	0.294212	-2.72977	66.0456	321.456	6.83788	80.1394	793.48
3.1875	0.294216	-2.72992	66.0465	321.456	6.83745	80.1401	793.464
3.19444	0.29422	-2.73007	66.0473	321.456	6.83704	80.1408	793.448
3.20139	0.294224	-2.73021	66.0481	321.456	6.83663	80.1416	793.433
3.20833	0.294228	-2.73036	66.049	321.456	6.83622	80.1423	793.418
3.21528	0.294232	-2.7305	66.0498	321.457	6.83582	80.1429	793.403
3.22222	0.294236	-2.73064	66.0506	321.457	6.83542	80.1436	793.388
3.22917	0.29424	-2.73078	66.0514	321.457	6.83504	80.1443	793.374
3.23611	0.294244	-2.73091	66.0522	321.457	6.83465	80.145	793.359
3.24306	0.294248	-2.73105	66.0529	321.457	6.83427	80.1456	793.345
3.25	0.294252	-2.73118	66.0537	321.457	6.8339	80.1463	793.331
3.25694	0.294256	-2.73131	66.0545	321.457	6.83353	80.1469	793.317
3.26389	0.29426	-2.73144	66.0552	321.457	6.83317	80.1476	793.304
3.27083	0.294264	-2.73157	66.0559	321.457	6.83281	80.1482	793.291
3.27778	0.294268	-2.7317	66.0566	321.458	6.83245	80.1488	793.277
3.28472	0.294272	-2.73182	66.0574	321.458	6.8321	80.1494	793.264
3.29167	0.294276	-2.73194	66.0581	321.458	6.83176	80.15	793.252
3.29861	0.294279	-2.73206	66.0588	321.458	6.83142	80.1506	793.239
3.30556	0.294283	-2.73218	66.0595	321.458	6.83108	80.1512	793.227
3.3125	0.294287	-2.7323	66.0601	321.458	6.83075	80.1518	793.214
3.31944	0.294291	-2.73242	66.0608	321.458	6.83043	80.1524	793.202
3.32639	0.294295	-2.73253	66.0615	321.458	6.8301	80.153	793.19
3.33333	0.294299	-2.73264	66.0621	321.459	6.82979	80.1535	793.179
3.34028	0.294302	-2.73276	66.0628	321.459	6.82947	80.1541	793.167
3.34722	0.294306	-2.73287	66.0634	321.459	6.82916	80.1547	793.156
3.35417	0.29431	-2.73298	66.064	321.459	6.82886	80.1552	793.145
3.36111	0.294314	-2.73308	66.0646	321.459	6.82856	80.1558	793.134
3.36806	0.294318	-2.73319	66.0652	321.459	6.82826	80.1563	793.123
3.375	0.294321	-2.73329	66.0658	321.459	6.82797	80.1568	793.112
3.38194	0.294325	-2.73339	66.0664	321.459	6.82768	80.1574	793.102
3.38889	0.294329	-2.7335	66.067	321.459	6.8274	80.1579	793.092
3.39583	0.294333	-2.7336	66.0676	321.46	6.82712	80.1584	793.081
3.40278	0.294336	-2.7337	66.0682	321.46	6.82684	80.1589	793.071
3.40972	0.29434	-2.73379	66.0687	321.46	6.82657	80.1594	793.062
3.41667	0.294344	-2.73389	66.0693	321.46	6.8263	80.1599	793.052
3.42361	0.294347	-2.73398	66.0698	321.46	6.82603	80.1604	793.042
3.43056	0.294351	-2.73408	66.0704	321.46	6.82577	80.1609	793.033
3.4375	0.294355	-2.73417	66.0709	321.46	6.82551	80.1614	793.024
3.44444	0.294358	-2.73426	66.0715	321.46	6.82525	80.1619	793.015
3.45139	0.294362	-2.73435	66.072	321.46	6.825	80.1624	793.006
3.45833	0.294365	-2.73444	66.0725	321.461	6.82475	80.1629	792.997
3.46528	0.294369	-2.73453	66.073	321.461	6.82451	80.1633	792.988
3.47222	0.294373	-2.73461	66.0735	321.461	6.82427	80.1638	792.98
3.47917	0.294376	-2.7347	66.074	321.461	6.82403	80.1643	792.971
3.48611	0.29438	-2.73478	66.0745	321.461	6.82379	80.1647	792.963
3.49306	0.294383	-2.73486	66.075	321.461	6.82356	80.1652	792.955
3.5	0.294387	-2.73495	66.0754	321.461	6.82333	80.1656	792.947
3.50694	0.29439	-2.73503	66.0759	321.461	6.82311	80.1661	792.939
3.51389	0.294394	-2.73511	66.0764	321.461	6.82288	80.1665	792.931
3.52083	0.294397	-2.73519	66.0768	321.462	6.82266	80.167	792.923
3.52778	0.294401	-2.73526	66.0773	321.462	6.82245	80.1674	792.916
3.53472	0.294404	-2.73534	66.0777	321.462	6.82223	80.1678	792.908
3.54167	0.294408	-2.73541	66.0782	321.462	6.82202	80.1682	792.901
3.54861	0.294411	-2.73549	66.0786	321.462	6.82181	80.1686	792.894
3.55556	0.294415	-2.73556	66.0791	321.462	6.82161	80.1691	792.887
3.5625	0.294418	-2.73563	66.0795	321.462	6.82141	80.1695	792.88
3.56944	0.294422	-2.73571	66.0799	321.462	6.82121	80.1699	792.873
3.57639	0.294425	-2.73578	66.0803	321.462	6.82101	80.1703	792.866
3.58333	0.294429	-2.73585	66.0807	321.462	6.82081	80.1707	792.859
3.59028	0.294432	-2.73591	66.0811	321.463	6.82062	80.1711	792.853
3.59722	0.294435	-2.73598	66.0815	321.463	6.82043	80.1715	792.846
3.60417	0.294439	-2.73605	66.0819	321.463	6.82025	80.1718	792.84
3.61111	0.294442	-2.73611	66.0823	321.463	6.82006	80.1722	792.834
3.61806	0.294445	-2.73618	66.0827	321.463	6.81988	80.1726	792.827
3.625	0.294449	-2.73624	66.0831	321.463	6.8197	80.173	792.821
3.63194	0.294452	-2.73631	66.0834	321.463	6.81952	80.1733	792.815
3.63889	0.294455	-2.73637	66.0838	321.463	6.81935	80.1737	792.809
3.64583	0.294459	-2.73643	66.0842	321.463	6.81918	80.1741	792.804
3.65278	0.294462	-2.73649	66.0845	321.464	6.81901	80.1744	792.798
3.65972	0.294465	-2.73655	66.0849	321.464	6.81884	80.1748	792.792
3.66667	0.294469	-2.73661	66.0852	321.464	6.81867	80.1751	792.787
3.67361	0.294472	-2.73667	66.0856	321.464	6.81851	80.1755	792.781
3.68056	0.294475	-2.73673	66.0859	321.464	6.81835	80.1758	792.776
3.6875	0.294478	-2.73678	66.0863	321.464	6.81819	80.1761	792.77
3.69444	0.294482	-2.73684	66.0866	321.464	6.81803	80.1765	792.765
3.70139	0.294485	-2.7369	66.0869	321.464	6.81788	80.1768	792.76
3.70833	0.294488	-2.73695	66.0873	321.464	6.81773	80.1771	792.755
3.71528	0.294491	-2.737	66.0876	321.465	6.81758	80.1775	792.75
3.72222	0.294495	-2.73706	66.0879	321.465	6.81743	80.1778	792.745
3.72917	0.294498	-2.73711	66.0882	321.465	6.81728	80.1781	792.74
3.73611	0.294501	-2.73716	66.0885	321.465	6.81714	80.1784	792.736
3.74306	0.294504	-2.73721	66.0888	321.465	6.81699	80.1787	792.731
3.75	0.294507	-2.73726	66.0891	321.465	6.81685	80.179	792.726
3.75694	0.29451	-2.73731	66.0894	321.465	6.81671	80.1794	792.722
3.76389	0.294514	-2.73736	66.0897	321.465	6.81658	80.1797	792.717
3.77083	0.294517	-2.73741	66.09	321.465	6.81644	80.18	792.713
3.77778	0.29452	-2.73746	66.0903	321.465	6.81631	80.1802	792.709
3.78472	0.294523	-2.7375	66.0906	321.466	6.81618	80.1805	792.704
3.79167	0.294526	-2.73755	66.0908	321.466	6.81605	80.1808	792.7
3.79861	0.294529	-2.7376	66.0911	321.466	6.81592	80.1811	792.696
3.80556	0.294532	-2.73764	66.0914	321.466	6.81579	80.1814	792.692
3.8125	0.294535	-2.73769	66.0917	321.466	6.81567	80.1817	792.688
3.81944	0.294538	-2.73773	66.0919	321.466	6.81555	80.182	792.684
3.82639	0.294541	-2.73777	66.0922	321.466	6.81543	80.1822	792.68
3.83333	0.294544	-2.73782	66.0925	321.466	6.81531	80.1825	792.676
3.84028	0.294547	-2.73786	66.0927	321.466	6.81519	80.1828	792.672
3.84722	0.29455	-2.7379	66.093	321.466	6.81507	80.183	792.669
3.85417	0.294553	-2.73794	66.0932	321.467	6.81496	80.1833	792.665
3.86111	0.294556	-2.73798	66.0935	321.467	6.81484	80.1836	792.661
3.86806	0.294559	-2.73802	66.0937	321.467	6.81473	80.1838	792.658
3.875	0.294562	-2.73806	66.0939	321.467	6.81462	80.1841	792.654
3.88194	0.294565	-2.7381	66.0942	321.467	6.81451	80.1843	792.651
3.88889	0.294568	-2.73814	66.0944	321.467	6.8144	80.1846	792.648
3.89583	0.294571	-2.73818	66.0947	321.467	6.8143	80.1848	792.644
3.90278	0.294574	-2.73822	66.0949	321.467	6.81419	80.1851	792.641
3.90972	0.294577	-2.73825	66.0951	321.467	6.81409	80.1853	792.638
3.91667	0.29458	-2.73829	66.0953	321.467	6.81399	80.1856	792.635
3.92361	0.294583	-2.73833	66.0956	321.468	6.81389	80.1858	792.632
3.93056	0.294586	-2.73836	66.0958	321.468	6.81379	80.186	792.629
3.9375	0.294589	-2.7384	66.096	321.468	6.81369	80.1863	792.626
3.94444	0.294592	-2.73843	66.0962	321.468	6.8136	80.1865	792.623
3.95139	0.294595	-2.73847	66.0964	321.468	6.8135	80.1867	792.62
3.95833	0.294597	-2.7385	66.0966	321.468	6.81341	80.187	792.617
3.96528	0.2946	-2.73853	66.0968	321.468	6.81331	80.1872	792.614
3.97222	0.294603	-2.73857	66.097	321.468	6.81322	80.1874	792.611
3.97917	0.294606	-2.7386	66.0972	321.468	6.81313	80.1876	792.608
3.98611	0.294609	-2.73863	66.0974	321.468	6.81304	80.1878	792.606
3.99306	0.294612	-2.73866	66.0976	321.469	6.81296	80.1881	792.603
4	0.294614	-2.73869	66.0978	321.469	6.81287	80.1883	792.6
