Time [d]	Moisture mass integral [kg/m2]	T_left [C]	RH_left [%]	pv_left [Pa]	T_right [C]	RH_right [%]	pv_right [Pa]
0	0.300116	18	80	1650.23	18	80	1650.23
0.00694444	0.298351	11.8837	24.2141	336.777	18.0585	80.2158	1660.78
0.0138889	0.297869	9.87758	27.148	330.404	18.1676	80.5741	1679.68
0.0208333	0.29756	8.65485	29.2717	328.071	18.2685	80.8313	1695.76
0.0277778	0.297324	7.77047	30.9654	326.808	18.3524	80.9324	1706.84
0.0347222	0.297117	7.02216	32.4998	325.886	18.4273	80.9434	1715.11
0.0416667	0.296935	6.4091	33.8345	325.26	18.4917	80.8389	1719.83
0.0486111	0.29677	5.90325	34.9887	324.804	18.5457	80.6165	1720.91
0.0555556	0.296616	5.47382	36.0076	324.454	18.5885	80.3106	1718.98
0.0625	0.296468	5.0869	36.9571	324.164	18.6234	79.9471	1714.94
0.0694444	0.296324	4.74116	37.8331	323.937	18.6487	79.531	1708.72
0.0763889	0.296183	4.43679	38.6243	323.743	18.6617	79.0732	1700.27
0.0833333	0.296046	4.16592	39.3453	323.58	18.6619	78.5919	1689.95
0.0902778	0.295909	3.91278	40.0336	323.435	18.6546	78.0892	1678.37
0.0972222	0.295775	3.68366	40.6692	323.311	18.6358	77.5835	1665.53
0.104167	0.295643	3.47462	41.2596	323.204	18.606	77.0882	1651.82
0.111111	0.295513	3.27862	41.8233	323.113	18.5687	76.6044	1637.62
0.118056	0.295385	3.09789	42.3504	323.027	18.5218	76.1424	1622.97
0.125	0.295261	2.93134	42.8434	322.953	18.4655	75.706	1607.98
0.131944	0.295138	2.77322	43.3176	322.884	18.4033	75.2856	1592.83
0.138889	0.295019	2.62497	43.7678	322.821	18.3342	74.8911	1577.63
0.145833	0.294902	2.48672	44.1926	322.765	18.2579	74.5245	1562.41
0.152778	0.29479	2.3576	44.5938	322.714	18.175	74.1876	1547.27
0.159722	0.294679	2.23422	44.981	322.666	18.0881	73.8595	1532.03
0.166667	0.294572	2.11864	45.3474	322.622	17.9956	73.5647	1517.07
0.173611	0.294467	2.00785	45.7023	322.585	17.8999	73.2893	1502.31
0.180556	0.294366	1.90312	46.0404	322.547	17.8002	73.0422	1487.87
0.1875	0.294268	1.80336	46.365	322.512	17.6973	72.8202	1473.76
0.194444	0.294174	1.70834	46.6768	322.479	17.5916	72.6258	1460.05
0.201389	0.294082	1.61742	46.9773	322.447	17.4836	72.4588	1446.8
0.208333	0.293995	1.53074	47.266	322.418	17.3734	72.3186	1433.98
0.215278	0.29391	1.44719	47.5462	322.391	17.2618	72.1965	1421.49
0.222222	0.293828	1.36689	47.8174	322.366	17.1488	72.0924	1409.32
0.229167	0.29375	1.29006	48.0784	322.342	17.0346	72.0057	1397.48
0.236111	0.293674	1.21596	48.3317	322.318	16.9196	71.9326	1385.91
0.243056	0.293602	1.14488	48.5762	322.296	16.8038	71.8746	1374.65
0.25	0.293532	1.07575	48.8152	322.275	16.6877	71.8261	1363.63
0.256944	0.293464	1.00928	49.0463	322.254	16.5712	71.7902	1352.89
0.263889	0.293399	0.944717	49.2721	322.235	16.4547	71.7632	1342.39
0.270833	0.293337	0.882045	49.4926	322.217	16.3383	71.745	1332.13
0.277778	0.293276	0.821317	49.7071	322.2	16.2219	71.7356	1322.11
0.284722	0.293218	0.762532	49.9158	322.183	16.106	71.7351	1312.35
0.291667	0.293163	0.705404	50.1195	322.166	15.9904	71.7418	1302.82
0.298611	0.293109	0.649845	50.3186	322.15	15.8754	71.7553	1293.52
0.305556	0.293057	0.59575	50.5132	322.135	15.7609	71.775	1284.43
0.3125	0.293008	0.543062	50.7036	322.12	15.6472	71.8004	1275.56
0.319444	0.29296	0.491665	50.8902	322.105	15.5342	71.8309	1266.89
0.326389	0.292914	0.441561	51.0728	322.091	15.422	71.8663	1258.43
0.333333	0.29287	0.392585	51.252	322.077	15.3107	71.9057	1250.15
0.340278	0.292827	0.344883	51.4272	322.064	15.2004	71.9489	1242.06
0.347222	0.292786	0.298024	51.6	322.051	15.0909	71.995	1234.13
0.354167	0.292747	0.252322	51.7692	322.038	14.9825	72.0447	1226.39
0.361111	0.292709	0.207533	51.9356	322.026	14.8751	72.0969	1218.82
0.368056	0.292673	0.163882	52.0985	322.015	14.769	72.1521	1211.43
0.375	0.292639	0.121105	52.2586	322.004	14.6639	72.2091	1204.2
0.381944	0.292605	0.0791657	52.4161	321.993	14.56	72.2679	1197.11
0.388889	0.292573	0.0380319	52.5711	321.982	14.4572	72.328	1190.17
0.395833	0.292542	-0.00232699	52.7237	321.971	14.3555	72.3892	1183.37
0.402778	0.292513	-0.0419335	52.8833	321.959	14.255	72.4512	1176.69
0.409722	0.292484	-0.080816	53.051	321.946	14.1556	72.5139	1170.15
0.416667	0.292457	-0.119007	53.2166	321.936	14.0573	72.5769	1163.73
0.423611	0.292431	-0.156529	53.3801	321.927	13.9602	72.6402	1157.42
0.430556	0.292405	-0.1934	53.5413	321.917	13.8642	72.7035	1151.23
0.4375	0.292381	-0.229637	53.6999	321.907	13.7694	72.7658	1145.14
0.444444	0.292358	-0.26526	53.8563	321.897	13.6758	72.8277	1139.15
0.451389	0.292335	-0.30029	54.0108	321.887	13.5833	72.891	1133.3
0.458333	0.292314	-0.334743	54.1632	321.878	13.4919	72.9569	1127.59
0.465278	0.292293	-0.368636	54.3136	321.869	13.4017	73.025	1122.02
0.472222	0.292274	-0.401982	54.462	321.86	13.3126	73.0951	1116.59
0.479167	0.292255	-0.434795	54.6085	321.852	13.2247	73.1663	1111.28
0.486111	0.292238	-0.467088	54.753	321.843	13.1378	73.2389	1106.09
0.493056	0.292221	-0.498875	54.8957	321.834	13.0521	73.3126	1101.02
0.5	0.292205	-0.530168	55.0366	321.826	12.9675	73.3871	1096.05
0.506944	0.29219	-0.560979	55.1758	321.819	12.884	73.462	1091.19
0.513889	0.292176	-0.591319	55.3132	321.811	12.8016	73.5372	1086.42
0.520833	0.292162	-0.621198	55.449	321.804	12.7203	73.6125	1081.75
0.527778	0.292149	-0.650625	55.583	321.797	12.64	73.6884	1077.18
0.534722	0.292137	-0.679609	55.7153	321.789	12.5608	73.7637	1072.69
0.541667	0.292126	-0.708159	55.846	321.782	12.4827	73.8393	1068.3
0.548611	0.292115	-0.736286	55.975	321.775	12.4055	73.9153	1063.99
0.555556	0.292105	-0.763996	56.1025	321.768	12.3294	73.9912	1059.77
0.5625	0.292095	-0.791299	56.2285	321.761	12.2544	74.0662	1055.61
0.569444	0.292086	-0.818203	56.353	321.755	12.1803	74.141	1051.54
0.576389	0.292078	-0.844714	56.476	321.749	12.1072	74.2155	1047.54
0.583333	0.29207	-0.87084	56.5974	321.743	12.0351	74.2897	1043.61
0.590278	0.292063	-0.896586	56.7174	321.737	11.9639	74.3632	1039.76
0.597222	0.292056	-0.92196	56.8358	321.731	11.8937	74.4355	1035.96
0.604167	0.29205	-0.946968	56.9528	321.725	11.8245	74.507	1032.22
0.611111	0.292044	-0.97162	57.0687	321.72	11.7562	74.5778	1028.55
0.618056	0.292039	-0.995917	57.1829	321.715	11.6888	74.6471	1024.94
0.625	0.292034	-1.01987	57.2957	321.709	11.6223	74.715	1021.37
0.631944	0.292029	-1.04347	57.4072	321.704	11.5568	74.7821	1017.86
0.638889	0.292025	-1.06675	57.5174	321.698	11.4921	74.8487	1014.41
0.645833	0.292021	-1.08969	57.6262	321.693	11.4283	74.9143	1011.02
0.652778	0.292018	-1.11231	57.7337	321.688	11.3653	74.9782	1007.67
0.659722	0.292015	-1.1346	57.8398	321.683	11.3032	75.0415	1004.38
0.666667	0.292012	-1.15659	57.9447	321.678	11.242	75.1042	1001.14
0.673611	0.29201	-1.17826	58.0483	321.673	11.1816	75.166	997.959
0.680556	0.292008	-1.19962	58.1507	321.668	11.122	75.2269	994.825
0.6875	0.292006	-1.22069	58.2518	321.664	11.0632	75.2869	991.739
0.694444	0.292005	-1.24146	58.3517	321.659	11.0053	75.3459	988.7
0.701389	0.292004	-1.26194	58.4504	321.655	10.9481	75.404	985.708
0.708333	0.292003	-1.28213	58.5479	321.65	10.8917	75.4611	982.76
0.715278	0.292002	-1.30204	58.6442	321.646	10.836	75.5168	979.852
0.722222	0.292002	-1.32168	58.7393	321.642	10.7812	75.5712	976.982
0.729167	0.292002	-1.34104	58.8333	321.638	10.727	75.6247	974.156
0.736111	0.292002	-1.36012	58.9262	321.634	10.6737	75.6772	971.371
0.743056	0.292003	-1.37895	59.0179	321.63	10.621	75.7286	968.626
0.75	0.292003	-1.39751	59.1084	321.626	10.5691	75.7788	965.918
0.756944	0.292004	-1.41581	59.1979	321.623	10.5179	75.828	963.247
0.763889	0.292005	-1.43385	59.2863	321.619	10.4674	75.8753	960.605
0.770833	0.292006	-1.45165	59.3736	321.615	10.4175	75.9218	958.001
0.777778	0.292007	-1.4692	59.4598	321.612	10.3684	75.9674	955.437
0.784722	0.292009	-1.48651	59.545	321.608	10.3199	76.0123	952.91
0.791667	0.292011	-1.50357	59.6291	321.605	10.2721	76.0564	950.421
0.798611	0.292012	-1.5204	59.7122	321.602	10.225	76.099	947.961
0.805556	0.292014	-1.537	59.7942	321.598	10.1785	76.141	945.539
0.8125	0.292016	-1.55336	59.8753	321.595	10.1326	76.1824	943.154
0.819444	0.292019	-1.5695	59.9553	321.592	10.0874	76.2235	940.812
0.826389	0.292021	-1.58541	60.0344	321.589	10.0428	76.2647	938.513
0.833333	0.292024	-1.60111	60.1125	321.586	9.99888	76.3059	936.259
0.840278	0.292026	-1.61659	60.1896	321.583	9.95553	76.3473	934.05
0.847222	0.292029	-1.63185	60.2658	321.58	9.91278	76.3886	931.881
0.854167	0.292032	-1.64691	60.341	321.578	9.87062	76.4295	929.747
0.861111	0.292036	-1.66175	60.4152	321.575	9.82905	76.4698	927.648
0.868056	0.292039	-1.67639	60.4886	321.572	9.78806	76.5101	925.587
0.875	0.292042	-1.69083	60.5611	321.57	9.74763	76.5505	923.566
0.881944	0.292046	-1.70507	60.6326	321.567	9.70776	76.5909	921.583
0.888889	0.29205	-1.71911	60.7032	321.565	9.66844	76.631	919.634
0.895833	0.292054	-1.73296	60.7729	321.562	9.62966	76.6707	917.716
0.902778	0.292058	-1.74661	60.8418	321.559	9.59142	76.7104	915.834
0.909722	0.292062	-1.76008	60.9097	321.557	9.5537	76.7501	913.987
0.916667	0.292067	-1.77336	60.9769	321.554	9.5165	76.7895	912.172
0.923611	0.292071	-1.78646	61.0432	321.552	9.47981	76.8289	910.39
0.930556	0.292076	-1.79938	61.1086	321.55	9.44363	76.868	908.638
0.9375	0.292081	-1.81211	61.1732	321.547	9.40794	76.9068	906.917
0.944444	0.292086	-1.82468	61.237	321.545	9.37274	76.9454	905.224
0.951389	0.292091	-1.83706	61.3	321.543	9.33803	76.9837	903.56
0.958333	0.292096	-1.84928	61.3622	321.541	9.30379	77.0213	901.918
0.965278	0.292101	-1.86133	61.4236	321.539	9.27003	77.0585	900.303
0.972222	0.292107	-1.87321	61.4843	321.537	9.23673	77.0955	898.717
0.979167	0.292112	-1.88493	61.5441	321.535	9.20389	77.1324	897.158
0.986111	0.292118	-1.89649	61.6032	321.533	9.1715	77.169	895.626
0.993056	0.292124	-1.90789	61.6616	321.531	9.13956	77.2048	894.113
1	0.29213	-1.91912	61.7192	321.529	9.10806	77.2406	892.629
1.00694	0.292136	-1.93021	61.776	321.527	9.077	77.2763	891.171
1.01389	0.292142	-1.94114	61.8322	321.525	9.04636	77.3118	889.738
1.02083	0.292148	-1.95192	61.8876	321.523	9.01614	77.3471	888.33
1.02778	0.292154	-1.96255	61.9423	321.521	8.98634	77.3822	886.946
1.03472	0.292161	-1.97304	61.9963	321.52	8.95695	77.417	885.585
1.04167	0.292167	-1.98338	62.0496	321.518	8.92796	77.4516	884.246
1.04861	0.292174	-1.99357	62.1022	321.516	8.89937	77.4859	882.93
1.05556	0.29218	-2.00363	62.1542	321.515	8.87117	77.5199	881.636
1.0625	0.292187	-2.01355	62.2054	321.513	8.84336	77.5536	880.362
1.06944	0.292194	-2.02333	62.2561	321.512	8.81593	77.5865	879.103
1.07639	0.292201	-2.03298	62.306	321.51	8.78887	77.6189	877.863
1.08333	0.292208	-2.04249	62.3554	321.509	8.76219	77.6509	876.64
1.09028	0.292215	-2.05187	62.4041	321.507	8.73588	77.6825	875.437
1.09722	0.292222	-2.06112	62.4521	321.506	8.70992	77.7138	874.253
1.10417	0.292229	-2.07025	62.4996	321.504	8.68433	77.7443	873.082
1.11111	0.292236	-2.07925	62.5464	321.503	8.65908	77.7748	871.932
1.11806	0.292243	-2.08812	62.5926	321.502	8.63418	77.805	870.801
1.125	0.292251	-2.09688	62.6382	321.5	8.60962	77.835	869.689
1.13194	0.292258	-2.10551	62.6833	321.499	8.5854	77.8647	868.594
1.13889	0.292265	-2.11402	62.7277	321.498	8.56152	77.8941	867.517
1.14583	0.292273	-2.12242	62.7716	321.496	8.53796	77.9232	866.456
1.15278	0.29228	-2.1307	62.8149	321.495	8.51472	77.9521	865.413
1.15972	0.292288	-2.13886	62.8576	321.494	8.4918	77.9806	864.385
1.16667	0.292295	-2.14692	62.8998	321.493	8.4692	78.0088	863.374
1.17361	0.292303	-2.15486	62.9414	321.492	8.4469	78.0368	862.378
1.18056	0.292311	-2.16269	62.9825	321.49	8.42491	78.0644	861.397
1.1875	0.292318	-2.17042	63.023	321.489	8.40323	78.0917	860.432
1.19444	0.292326	-2.17803	63.0631	321.488	8.38184	78.1184	859.477
1.20139	0.292334	-2.18555	63.1025	321.487	8.36074	78.1446	858.536
1.20833	0.292342	-2.19296	63.1415	321.486	8.33994	78.1706	857.608
1.21528	0.29235	-2.20027	63.18	321.485	8.31942	78.1962	856.695
1.22222	0.292357	-2.20747	63.218	321.484	8.29918	78.2214	855.794
1.22917	0.292365	-2.21458	63.2554	321.483	8.27922	78.2462	854.905
1.23611	0.292373	-2.22159	63.2924	321.482	8.25953	78.2702	854.025
1.24306	0.292381	-2.22851	63.3289	321.481	8.24011	78.2941	853.16
1.25	0.292389	-2.23532	63.3649	321.48	8.22096	78.3178	852.309
1.25694	0.292397	-2.24205	63.4005	321.48	8.20208	78.3413	851.47
1.26389	0.292405	-2.24868	63.4356	321.479	8.18345	78.3645	850.644
1.27083	0.292413	-2.25522	63.4702	321.478	8.16508	78.3874	849.831
1.27778	0.292421	-2.26167	63.5043	321.477	8.14696	78.4101	849.03
1.28472	0.292429	-2.26804	63.538	321.476	8.12908	78.4325	848.241
1.29167	0.292437	-2.27431	63.5713	321.475	8.11146	78.4546	847.464
1.29861	0.292445	-2.2805	63.6042	321.475	8.09407	78.4765	846.698
1.30556	0.292453	-2.2866	63.6366	321.474	8.07693	78.498	845.944
1.3125	0.292461	-2.29262	63.6686	321.473	8.06002	78.5193	845.2
1.31944	0.292469	-2.29856	63.7001	321.472	8.04334	78.5403	844.467
1.32639	0.292478	-2.30441	63.7312	321.472	8.02689	78.561	843.745
1.33333	0.292486	-2.31019	63.762	321.471	8.01066	78.5815	843.033
1.34028	0.292494	-2.31588	63.7923	321.47	7.99466	78.6016	842.331
1.34722	0.292502	-2.3215	63.8222	321.47	7.97888	78.6215	841.639
1.35417	0.29251	-2.32704	63.8517	321.469	7.96332	78.641	840.956
1.36111	0.292518	-2.3325	63.8809	321.468	7.94796	78.6601	840.281
1.36806	0.292526	-2.33789	63.9096	321.468	7.93282	78.6788	839.615
1.375	0.292534	-2.34321	63.938	321.467	7.91789	78.6974	838.959
1.38194	0.292542	-2.34845	63.966	321.467	7.90316	78.7157	838.313
1.38889	0.29255	-2.35362	63.9936	321.466	7.88864	78.7338	837.677
1.39583	0.292559	-2.35871	64.0208	321.465	7.87431	78.7517	837.049
1.40278	0.292567	-2.36374	64.0477	321.465	7.86018	78.7693	836.43
1.40972	0.292575	-2.3687	64.0742	321.464	7.84624	78.7863	835.816
1.41667	0.292583	-2.37359	64.1004	321.463	7.8325	78.8031	835.212
1.42361	0.292591	-2.37842	64.1262	321.463	7.81894	78.8197	834.616
1.43056	0.292599	-2.38317	64.1517	321.462	7.80557	78.8361	834.029
1.4375	0.292607	-2.38786	64.1769	321.462	7.79239	78.8523	833.451
1.44444	0.292615	-2.39249	64.2017	321.461	7.77938	78.8683	832.881
1.45139	0.292623	-2.39706	64.2262	321.461	7.76656	78.8841	832.32
1.45833	0.292631	-2.40156	64.2503	321.46	7.75391	78.8997	831.766
1.46528	0.292639	-2.406	64.2742	321.46	7.74143	78.9151	831.221
1.47222	0.292647	-2.41037	64.2977	321.459	7.72913	78.9303	830.684
1.47917	0.292655	-2.41469	64.3209	321.459	7.71699	78.9454	830.154
1.48611	0.292663	-2.41895	64.3438	321.458	7.70502	78.9602	829.632
1.49306	0.292671	-2.42315	64.3664	321.458	7.69321	78.9749	829.118
1.5	0.292679	-2.42729	64.3887	321.457	7.68157	78.9893	828.611
1.50694	0.292687	-2.43138	64.4107	321.457	7.67008	79.0036	828.111
1.51389	0.292695	-2.43541	64.4324	321.457	7.65876	79.0177	827.619
1.52083	0.292703	-2.43938	64.4538	321.456	7.64759	79.0315	827.133
1.52778	0.292711	-2.4433	64.4749	321.456	7.63657	79.0453	826.655
1.53472	0.292719	-2.44717	64.4957	321.455	7.6257	79.0588	826.183
1.54167	0.292727	-2.45098	64.5163	321.455	7.61499	79.0721	825.718
1.54861	0.292735	-2.45474	64.5366	321.455	7.60441	79.0853	825.26
1.55556	0.292743	-2.45845	64.5566	321.454	7.59399	79.0983	824.808
1.5625	0.292751	-2.46211	64.5764	321.454	7.58371	79.1111	824.362
1.56944	0.292759	-2.46572	64.5959	321.454	7.57356	79.1237	823.923
1.57639	0.292767	-2.46927	64.6151	321.453	7.56356	79.1362	823.489
1.58333	0.292775	-2.47278	64.6341	321.453	7.5537	79.1485	823.062
1.59028	0.292782	-2.47624	64.6528	321.453	7.54397	79.1606	822.641
1.59722	0.29279	-2.47966	64.6713	321.452	7.53437	79.1723	822.224
1.60417	0.292798	-2.48302	64.6895	321.452	7.52491	79.1839	821.813
1.61111	0.292806	-2.48635	64.7075	321.452	7.51557	79.1953	821.407
1.61806	0.292814	-2.48962	64.7252	321.451	7.50637	79.2065	821.006
1.625	0.292822	-2.49285	64.7427	321.451	7.49729	79.2176	820.611
1.63194	0.292829	-2.49604	64.76	321.451	7.48833	79.2285	820.222
1.63889	0.292837	-2.49918	64.777	321.451	7.4795	79.2392	819.838
1.64583	0.292845	-2.50228	64.7938	321.45	7.47079	79.2498	819.46
1.65278	0.292852	-2.50533	64.8104	321.45	7.4622	79.2603	819.087
1.65972	0.29286	-2.50835	64.8267	321.45	7.45372	79.2706	818.719
1.66667	0.292868	-2.51132	64.8429	321.45	7.44537	79.2807	818.355
1.67361	0.292876	-2.51425	64.8588	321.449	7.43713	79.2905	817.996
1.68056	0.292883	-2.51714	64.8745	321.449	7.429	79.3003	817.642
1.6875	0.292891	-2.52	64.89	321.449	7.42098	79.31	817.294
1.69444	0.292898	-2.52281	64.9053	321.449	7.41307	79.3195	816.95
1.70139	0.292906	-2.52558	64.9204	321.449	7.40527	79.329	816.611
1.70833	0.292913	-2.52832	64.9353	321.448	7.39758	79.3382	816.277
1.71528	0.292921	-2.53102	64.9499	321.448	7.38999	79.3473	815.947
1.72222	0.292929	-2.53368	64.9644	321.448	7.38251	79.3562	815.621
1.72917	0.292936	-2.53631	64.9787	321.448	7.37513	79.3651	815.3
1.73611	0.292944	-2.5389	64.9928	321.448	7.36786	79.3738	814.984
1.74306	0.292951	-2.54145	65.0067	321.447	7.36068	79.3824	814.672
1.75	0.292958	-2.54397	65.0204	321.447	7.3536	79.3909	814.365
1.75694	0.292966	-2.54645	65.034	321.447	7.34662	79.3993	814.062
1.76389	0.292973	-2.5489	65.0473	321.447	7.33973	79.4076	813.763
1.77083	0.292981	-2.55132	65.0605	321.447	7.33294	79.4157	813.469
1.77778	0.292988	-2.5537	65.0735	321.447	7.32624	79.4238	813.178
1.78472	0.292995	-2.55605	65.0863	321.446	7.31963	79.4318	812.892
1.79167	0.293003	-2.55837	65.0989	321.446	7.31311	79.4396	812.61
1.79861	0.29301	-2.56066	65.1114	321.446	7.30669	79.4474	812.332
1.80556	0.293017	-2.56291	65.1237	321.446	7.30035	79.455	812.057
1.8125	0.293025	-2.56514	65.1359	321.446	7.2941	79.4626	811.787
1.81944	0.293032	-2.56733	65.1479	321.446	7.28793	79.47	811.52
1.82639	0.293039	-2.56949	65.1597	321.446	7.28185	79.4774	811.258
1.83333	0.293046	-2.57163	65.1713	321.446	7.27585	79.4846	810.998
1.84028	0.293054	-2.57373	65.1828	321.445	7.26993	79.4918	810.743
1.84722	0.293061	-2.57581	65.1942	321.445	7.2641	79.4988	810.491
1.85417	0.293068	-2.57786	65.2054	321.445	7.25835	79.5058	810.243
1.86111	0.293075	-2.57988	65.2164	321.445	7.25267	79.5126	809.998
1.86806	0.293082	-2.58187	65.2273	321.445	7.24707	79.5194	809.756
1.875	0.293089	-2.58383	65.2381	321.445	7.24155	79.5261	809.518
1.88194	0.293096	-2.58577	65.2487	321.445	7.23611	79.5327	809.284
1.88889	0.293103	-2.58768	65.2591	321.445	7.23074	79.5393	809.053
1.89583	0.293111	-2.58956	65.2694	321.445	7.22545	79.5458	808.826
1.90278	0.293118	-2.59142	65.2796	321.445	7.22023	79.5522	808.602
1.90972	0.293125	-2.59326	65.2897	321.445	7.21508	79.5587	808.383
1.91667	0.293132	-2.59506	65.2996	321.445	7.21001	79.5651	808.167
1.92361	0.293139	-2.59685	65.3093	321.444	7.205	79.5715	807.954
1.93056	0.293146	-2.59861	65.319	321.444	7.20007	79.5778	807.746
1.9375	0.293152	-2.60034	65.3285	321.444	7.1952	79.5841	807.541
1.94444	0.293159	-2.60205	65.3379	321.444	7.1904	79.5904	807.339
1.95139	0.293166	-2.60374	65.3471	321.444	7.18566	79.5967	807.141
1.95833	0.293173	-2.6054	65.3563	321.444	7.18099	79.603	806.946
1.96528	0.29318	-2.60704	65.3653	321.444	7.17639	79.6092	806.754
1.97222	0.293187	-2.60866	65.3742	321.444	7.17185	79.6154	806.566
1.97917	0.293194	-2.61026	65.3829	321.444	7.16737	79.6216	806.381
1.98611	0.293201	-2.61183	65.3916	321.444	7.16295	79.6277	806.199
1.99306	0.293208	-2.61339	65.4001	321.444	7.15859	79.6338	806.02
2	0.293214	-2.61492	65.4085	321.444	7.15429	79.6398	805.844
2.00694	0.293221	-2.61643	65.4168	321.444	7.15005	79.6458	805.67
2.01389	0.293228	-2.61792	65.425	321.444	7.14587	79.6518	805.5
2.02083	0.293235	-2.61939	65.4331	321.444	7.14175	79.6578	805.332
2.02778	0.293242	-2.62084	65.4411	321.444	7.13768	79.6637	805.168
2.03472	0.293248	-2.62227	65.4489	321.444	7.13367	79.6695	805.005
2.04167	0.293255	-2.62368	65.4567	321.444	7.12972	79.6754	804.846
2.04861	0.293262	-2.62507	65.4643	321.444	7.12581	79.681	804.688
2.05556	0.293269	-2.62644	65.4719	321.444	7.12196	79.6866	804.532
2.0625	0.293275	-2.62779	65.4793	321.444	7.11817	79.6922	804.379
2.06944	0.293282	-2.62913	65.4867	321.444	7.11442	79.6978	804.229
2.07639	0.293289	-2.63044	65.4939	321.444	7.11073	79.7033	804.081
2.08333	0.293295	-2.63174	65.501	321.444	7.10709	79.7088	803.935
2.09028	0.293302	-2.63302	65.5081	321.444	7.1035	79.7142	803.792
2.09722	0.293309	-2.63428	65.515	321.444	7.09995	79.7196	803.651
2.10417	0.293315	-2.63553	65.5219	321.444	7.09646	79.7249	803.513
2.11111	0.293322	-2.63675	65.5287	321.444	7.09301	79.7302	803.376
2.11806	0.293328	-2.63796	65.5353	321.444	7.08961	79.7355	803.242
2.125	0.293335	-2.63916	65.5419	321.444	7.08626	79.7407	803.11
2.13194	0.293341	-2.64034	65.5484	321.444	7.08295	79.7459	802.979
2.13889	0.293348	-2.6415	65.5548	321.444	7.07969	79.751	802.851
2.14583	0.293355	-2.64264	65.5611	321.444	7.07647	79.7561	802.725
2.15278	0.293361	-2.64377	65.5674	321.444	7.0733	79.7611	802.601
2.15972	0.293367	-2.64489	65.5735	321.444	7.07017	79.7661	802.479
2.16667	0.293374	-2.64599	65.5796	321.444	7.06708	79.771	802.359
2.17361	0.29338	-2.64707	65.5856	321.444	7.06403	79.7759	802.24
2.18056	0.293387	-2.64814	65.5915	321.444	7.06103	79.7807	802.123
2.1875	0.293393	-2.6492	65.5973	321.444	7.05807	79.7854	802.008
2.19444	0.2934	-2.65024	65.603	321.444	7.05514	79.7901	801.894
2.20139	0.293406	-2.65126	65.6087	321.444	7.05226	79.7948	801.782
2.20833	0.293412	-2.65227	65.6143	321.444	7.04942	79.7994	801.672
2.21528	0.293419	-2.65327	65.6198	321.445	7.04662	79.8039	801.564
2.22222	0.293425	-2.65425	65.6252	321.445	7.04385	79.8084	801.457
2.22917	0.293431	-2.65523	65.6306	321.445	7.04112	79.8129	801.352
2.23611	0.293438	-2.65618	65.6359	321.445	7.03843	79.8174	801.249
2.24306	0.293444	-2.65713	65.6411	321.445	7.03578	79.8217	801.147
2.25	0.29345	-2.65806	65.6463	321.445	7.03316	79.8261	801.046
2.25694	0.293457	-2.65898	65.6513	321.445	7.03058	79.8304	800.948
2.26389	0.293463	-2.65988	65.6564	321.445	7.02803	79.8346	800.85
2.27083	0.293469	-2.66078	65.6613	321.445	7.02552	79.8388	800.755
2.27778	0.293475	-2.66166	65.6662	321.445	7.02304	79.843	800.66
2.28472	0.293482	-2.66253	65.671	321.445	7.0206	79.8471	800.567
2.29167	0.293488	-2.66338	65.6757	321.445	7.01819	79.8512	800.476
2.29861	0.293494	-2.66423	65.6804	321.445	7.01581	79.8552	800.386
2.30556	0.2935	-2.66506	65.685	321.445	7.01347	79.8592	800.297
2.3125	0.293506	-2.66589	65.6896	321.445	7.01115	79.8632	800.209
2.31944	0.293512	-2.6667	65.6941	321.445	7.00887	79.8671	800.123
2.32639	0.293518	-2.6675	65.6985	321.445	7.00662	79.8709	800.038
2.33333	0.293524	-2.66829	65.7029	321.446	7.0044	79.8747	799.954
2.34028	0.29353	-2.66907	65.7072	321.446	7.00221	79.8784	799.871
2.34722	0.293537	-2.66983	65.7115	321.446	7.00006	79.8821	799.79
2.35417	0.293543	-2.67059	65.7157	321.446	6.99793	79.8857	799.709
2.36111	0.293549	-2.67134	65.7198	321.446	6.99583	79.8893	799.63
2.36806	0.293555	-2.67207	65.7239	321.446	6.99375	79.8929	799.552
2.375	0.293561	-2.6728	65.7279	321.446	6.99171	79.8964	799.475
2.38194	0.293566	-2.67352	65.7319	321.446	6.9897	79.8999	799.399
2.38889	0.293572	-2.67423	65.7358	321.446	6.98771	79.9033	799.324
2.39583	0.293578	-2.67492	65.7397	321.446	6.98575	79.9067	799.251
2.40278	0.293584	-2.67561	65.7435	321.446	6.98381	79.9101	799.179
2.40972	0.29359	-2.67629	65.7473	321.446	6.98191	79.9134	799.107
2.41667	0.293596	-2.67696	65.751	321.446	6.98002	79.9167	799.037
2.42361	0.293602	-2.67762	65.7547	321.447	6.97817	79.9199	798.968
2.43056	0.293608	-2.67827	65.7583	321.447	6.97634	79.9231	798.899
2.4375	0.293614	-2.67891	65.7618	321.447	6.97453	79.9263	798.832
2.44444	0.293619	-2.67954	65.7654	321.447	6.97275	79.9295	798.766
2.45139	0.293625	-2.68017	65.7688	321.447	6.97099	79.9326	798.701
2.45833	0.293631	-2.68078	65.7723	321.447	6.96926	79.9356	798.636
2.46528	0.293637	-2.68139	65.7756	321.447	6.96755	79.9387	798.573
2.47222	0.293642	-2.68199	65.779	321.447	6.96587	79.9417	798.511
2.47917	0.293648	-2.68258	65.7823	321.447	6.9642	79.9446	798.449
2.48611	0.293654	-2.68317	65.7855	321.447	6.96256	79.9476	798.388
2.49306	0.29366	-2.68374	65.7887	321.447	6.96095	79.9505	798.329
2.5	0.293665	-2.68431	65.7919	321.448	6.95935	79.9533	798.27
2.50694	0.293671	-2.68487	65.795	321.448	6.95778	79.9562	798.212
2.51389	0.293677	-2.68542	65.798	321.448	6.95623	79.959	798.155
2.52083	0.293682	-2.68596	65.8011	321.448	6.95469	79.9617	798.098
2.52778	0.293688	-2.6865	65.8041	321.448	6.95318	79.9645	798.043
2.53472	0.293693	-2.68703	65.807	321.448	6.9517	79.9672	797.988
2.54167	0.293699	-2.68755	65.8099	321.448	6.95023	79.9698	797.934
2.54861	0.293704	-2.68807	65.8128	321.448	6.94878	79.9725	797.881
2.55556	0.29371	-2.68857	65.8156	321.448	6.94735	79.9751	797.829
2.5625	0.293716	-2.68908	65.8184	321.448	6.94594	79.9776	797.777
2.56944	0.293721	-2.68957	65.8212	321.448	6.94455	79.9802	797.727
2.57639	0.293727	-2.69006	65.8239	321.449	6.94318	79.9827	797.676
2.58333	0.293732	-2.69054	65.8266	321.449	6.94182	79.9852	797.627
2.59028	0.293737	-2.69101	65.8292	321.449	6.94049	79.9876	797.578
2.59722	0.293743	-2.69148	65.8318	321.449	6.93917	79.99	797.531
2.60417	0.293748	-2.69194	65.8344	321.449	6.93787	79.9924	797.483
2.61111	0.293754	-2.6924	65.8369	321.449	6.93659	79.9948	797.437
2.61806	0.293759	-2.69285	65.8395	321.449	6.93533	79.9971	797.391
2.625	0.293765	-2.69329	65.8419	321.449	6.93408	79.9994	797.346
2.63194	0.29377	-2.69373	65.8444	321.449	6.93285	80.0017	797.301
2.63889	0.293775	-2.69416	65.8468	321.449	6.93164	80.004	797.257
2.64583	0.293781	-2.69458	65.8491	321.45	6.93045	80.0062	797.214
2.65278	0.293786	-2.695	65.8515	321.45	6.92927	80.0084	797.171
2.65972	0.293791	-2.69542	65.8538	321.45	6.9281	80.0106	797.129
2.66667	0.293796	-2.69582	65.8561	321.45	6.92696	80.0127	797.088
2.67361	0.293802	-2.69623	65.8583	321.45	6.92582	80.0148	797.047
2.68056	0.293807	-2.69662	65.8605	321.45	6.92471	80.0169	797.007
2.6875	0.293812	-2.69701	65.8627	321.45	6.92361	80.019	796.967
2.69444	0.293817	-2.6974	65.8649	321.45	6.92252	80.021	796.928
2.70139	0.293823	-2.69778	65.867	321.45	6.92145	80.023	796.889
2.70833	0.293828	-2.69816	65.8691	321.45	6.92039	80.025	796.851
2.71528	0.293833	-2.69853	65.8712	321.451	6.91935	80.027	796.814
2.72222	0.293838	-2.69889	65.8733	321.451	6.91832	80.0289	796.777
2.72917	0.293843	-2.69925	65.8753	321.451	6.91731	80.0309	796.741
2.73611	0.293848	-2.69961	65.8773	321.451	6.91631	80.0328	796.705
2.74306	0.293853	-2.69996	65.8792	321.451	6.91532	80.0346	796.669
2.75	0.293859	-2.70031	65.8812	321.451	6.91435	80.0365	796.635
2.75694	0.293864	-2.70065	65.8831	321.451	6.91339	80.0383	796.6
2.76389	0.293869	-2.70098	65.885	321.451	6.91244	80.0401	796.566
2.77083	0.293874	-2.70132	65.8868	321.451	6.91151	80.0419	796.533
2.77778	0.293879	-2.70164	65.8887	321.452	6.91059	80.0437	796.5
2.78472	0.293884	-2.70197	65.8905	321.452	6.90968	80.0454	796.468
2.79167	0.293889	-2.70229	65.8923	321.452	6.90878	80.0471	796.436
2.79861	0.293894	-2.7026	65.894	321.452	6.9079	80.0488	796.404
2.80556	0.293899	-2.70291	65.8958	321.452	6.90702	80.0505	796.373
2.8125	0.293904	-2.70322	65.8975	321.452	6.90616	80.0521	796.343
2.81944	0.293909	-2.70352	65.8992	321.452	6.90532	80.0538	796.313
2.82639	0.293914	-2.70381	65.9009	321.452	6.90448	80.0554	796.283
2.83333	0.293918	-2.70411	65.9025	321.452	6.90365	80.057	796.254
2.84028	0.293923	-2.7044	65.9041	321.453	6.90284	80.0586	796.225
2.84722	0.293928	-2.70468	65.9057	321.453	6.90204	80.0601	796.196
2.85417	0.293933	-2.70497	65.9073	321.453	6.90124	80.0617	796.168
2.86111	0.293938	-2.70524	65.9089	321.453	6.90046	80.0632	796.141
2.86806	0.293943	-2.70552	65.9104	321.453	6.89969	80.0647	796.114
2.875	0.293948	-2.70579	65.912	321.453	6.89893	80.0662	796.087
2.88194	0.293952	-2.70605	65.9135	321.453	6.89818	80.0676	796.06
2.88889	0.293957	-2.70632	65.9149	321.453	6.89744	80.0691	796.034
2.89583	0.293962	-2.70658	65.9164	321.453	6.89671	80.0705	796.008
2.90278	0.293967	-2.70683	65.9178	321.454	6.89599	80.0719	795.983
2.90972	0.293971	-2.70709	65.9193	321.454	6.89528	80.0733	795.958
2.91667	0.293976	-2.70733	65.9207	321.454	6.89458	80.0747	795.934
2.92361	0.293981	-2.70758	65.9221	321.454	6.89389	80.076	795.909
2.93056	0.293985	-2.70782	65.9234	321.454	6.89321	80.0774	795.885
2.9375	0.29399	-2.70806	65.9248	321.454	6.89254	80.0787	795.862
2.94444	0.293995	-2.7083	65.9261	321.454	6.89188	80.08	795.839
2.95139	0.293999	-2.70853	65.9274	321.454	6.89122	80.0813	795.816
2.95833	0.294004	-2.70876	65.9287	321.455	6.89058	80.0826	795.793
2.96528	0.294009	-2.70899	65.93	321.455	6.88994	80.0838	795.771
2.97222	0.294013	-2.70921	65.9313	321.455	6.88931	80.0851	795.749
2.97917	0.294018	-2.70943	65.9325	321.455	6.88869	80.0863	795.727
2.98611	0.294022	-2.70965	65.9337	321.455	6.88808	80.0875	795.706
2.99306	0.294027	-2.70986	65.9349	321.455	6.88748	80.0887	795.685
3	0.294032	-2.71007	65.9361	321.455	6.88689	80.0899	795.664
3.00694	0.294036	-2.71028	65.9373	321.455	6.8863	80.0911	795.644
3.01389	0.294041	-2.71049	65.9385	321.455	6.88572	80.0922	795.624
3.02083	0.294045	-2.71069	65.9396	321.456	6.88515	80.0934	795.604
3.02778	0.29405	-2.71089	65.9408	321.456	6.88459	80.0945	795.585
3.03472	0.294054	-2.71109	65.9419	321.456	6.88404	80.0956	795.565
3.04167	0.294059	-2.71128	65.943	321.456	6.88349	80.0967	795.546
3.04861	0.294063	-2.71147	65.9441	321.456	6.88295	80.0978	795.528
3.05556	0.294067	-2.71166	65.9452	321.456	6.88242	80.0989	795.509
3.0625	0.294072	-2.71185	65.9462	321.456	6.88189	80.1	795.491
3.06944	0.294076	-2.71204	65.9473	321.456	6.88137	80.101	795.473
3.07639	0.294081	-2.71222	65.9483	321.457	6.88086	80.102	795.456
3.08333	0.294085	-2.7124	65.9493	321.457	6.88036	80.1031	795.438
3.09028	0.294089	-2.71257	65.9503	321.457	6.87986	80.1041	795.421
3.09722	0.294094	-2.71275	65.9513	321.457	6.87937	80.1051	795.404
3.10417	0.294098	-2.71292	65.9523	321.457	6.87889	80.106	795.387
3.11111	0.294102	-2.71309	65.9533	321.457	6.87841	80.107	795.371
3.11806	0.294107	-2.71326	65.9542	321.457	6.87794	80.108	795.355
3.125	0.294111	-2.71342	65.9552	321.457	6.87747	80.1089	795.339
3.13194	0.294115	-2.71359	65.9561	321.457	6.87702	80.1099	795.323
3.13889	0.294119	-2.71375	65.957	321.458	6.87656	80.1108	795.308
3.14583	0.294124	-2.71391	65.9579	321.458	6.87612	80.1117	795.292
3.15278	0.294128	-2.71406	65.9588	321.458	6.87568	80.1126	795.277
3.15972	0.294132	-2.71422	65.9597	321.458	6.87525	80.1135	795.263
3.16667	0.294136	-2.71437	65.9605	321.458	6.87482	80.1144	795.248
3.17361	0.294141	-2.71452	65.9614	321.458	6.8744	80.1153	795.234
3.18056	0.294145	-2.71467	65.9623	321.458	6.87398	80.1161	795.219
3.1875	0.294149	-2.71481	65.9631	321.458	6.87357	80.117	795.205
3.19444	0.294153	-2.71496	65.9639	321.458	6.87316	80.1178	795.192
3.20139	0.294157	-2.7151	65.9647	321.459	6.87276	80.1186	795.178
3.20833	0.294161	-2.71524	65.9655	321.459	6.87237	80.1195	795.165
3.21528	0.294165	-2.71538	65.9663	321.459	6.87198	80.1203	795.152
3.22222	0.29417	-2.71552	65.9671	321.459	6.8716	80.1211	795.139
3.22917	0.294174	-2.71565	65.9679	321.459	6.87122	80.1219	795.126
3.23611	0.294178	-2.71578	65.9686	321.459	6.87085	80.1227	795.113
3.24306	0.294182	-2.71592	65.9694	321.459	6.87048	80.1234	795.101
3.25	0.294186	-2.71605	65.9701	321.459	6.87012	80.1242	795.088
3.25694	0.29419	-2.71617	65.9709	321.46	6.86976	80.1249	795.076
3.26389	0.294194	-2.7163	65.9716	321.46	6.86941	80.1257	795.064
3.27083	0.294198	-2.71642	65.9723	321.46	6.86906	80.1264	795.053
3.27778	0.294202	-2.71655	65.973	321.46	6.86871	80.1271	795.041
3.28472	0.294206	-2.71667	65.9737	321.46	6.86837	80.1279	795.03
3.29167	0.29421	-2.71679	65.9744	321.46	6.86804	80.1286	795.019
3.29861	0.294214	-2.7169	65.9751	321.46	6.86771	80.1293	795.007
3.30556	0.294218	-2.71702	65.9757	321.46	6.86738	80.13	794.997
3.3125	0.294222	-2.71713	65.9764	321.46	6.86706	80.1307	794.986
3.31944	0.294226	-2.71725	65.977	321.461	6.86675	80.1313	794.975
3.32639	0.294229	-2.71736	65.9777	321.461	6.86643	80.132	794.965
3.33333	0.294233	-2.71747	65.9783	321.461	6.86613	80.1327	794.955
3.34028	0.294237	-2.71758	65.9789	321.461	6.86582	80.1333	794.944
3.34722	0.294241	-2.71768	65.9796	321.461	6.86552	80.134	794.934
3.35417	0.294245	-2.71779	65.9802	321.461	6.86523	80.1346	794.925
3.36111	0.294249	-2.71789	65.9808	321.461	6.86493	80.1352	794.915
3.36806	0.294253	-2.718	65.9814	321.461	6.86465	80.1358	794.905
3.375	0.294256	-2.7181	65.9819	321.461	6.86436	80.1365	794.896
3.38194	0.29426	-2.7182	65.9825	321.462	6.86408	80.1371	794.887
3.38889	0.294264	-2.7183	65.9831	321.462	6.86381	80.1377	794.878
3.39583	0.294268	-2.71839	65.9837	321.462	6.86353	80.1383	794.869
3.40278	0.294272	-2.71849	65.9842	321.462	6.86327	80.1388	794.86
3.40972	0.294275	-2.71858	65.9848	321.462	6.863	80.1394	794.851
3.41667	0.294279	-2.71868	65.9853	321.462	6.86274	80.14	794.842
3.42361	0.294283	-2.71877	65.9858	321.462	6.86248	80.1406	794.834
3.43056	0.294287	-2.71886	65.9864	321.462	6.86223	80.1411	794.825
3.4375	0.29429	-2.71895	65.9869	321.462	6.86198	80.1417	794.817
3.44444	0.294294	-2.71904	65.9874	321.463	6.86173	80.1422	794.809
3.45139	0.294298	-2.71913	65.9879	321.463	6.86148	80.1428	794.801
3.45833	0.294301	-2.71921	65.9884	321.463	6.86124	80.1433	794.793
3.46528	0.294305	-2.7193	65.9889	321.463	6.861	80.1438	794.785
3.47222	0.294309	-2.71938	65.9894	321.463	6.86077	80.1443	794.778
3.47917	0.294312	-2.71946	65.9899	321.463	6.86054	80.1449	794.77
3.48611	0.294316	-2.71955	65.9903	321.463	6.86031	80.1454	794.763
3.49306	0.29432	-2.71963	65.9908	321.463	6.86008	80.1459	794.756
3.5	0.294323	-2.71971	65.9913	321.463	6.85986	80.1464	794.748
3.50694	0.294327	-2.71978	65.9917	321.464	6.85964	80.1469	794.741
3.51389	0.29433	-2.71986	65.9922	321.464	6.85943	80.1473	794.734
3.52083	0.294334	-2.71994	65.9926	321.464	6.85921	80.1478	794.727
3.52778	0.294337	-2.72001	65.9931	321.464	6.859	80.1483	794.721
3.53472	0.294341	-2.72009	65.9935	321.464	6.8588	80.1488	794.714
3.54167	0.294345	-2.72016	65.9939	321.464	6.85859	80.1492	794.707
3.54861	0.294348	-2.72023	65.9944	321.464	6.85839	80.1497	794.701
3.55556	0.294352	-2.7203	65.9948	321.464	6.85819	80.1501	794.695
3.5625	0.294355	-2.72037	65.9952	321.464	6.85799	80.1506	794.688
3.56944	0.294359	-2.72044	65.9956	321.465	6.8578	80.151	794.682
3.57639	0.294362	-2.72051	65.996	321.465	6.85761	80.1515	794.676
3.58333	0.294365	-2.72058	65.9964	321.465	6.85742	80.1519	794.67
3.59028	0.294369	-2.72065	65.9968	321.465	6.85723	80.1523	794.664
3.59722	0.294372	-2.72071	65.9972	321.465	6.85705	80.1527	794.658
3.60417	0.294376	-2.72078	65.9976	321.465	6.85687	80.1532	794.652
3.61111	0.294379	-2.72084	65.9979	321.465	6.85669	80.1536	794.647
3.61806	0.294383	-2.7209	65.9983	321.465	6.85651	80.154	794.641
3.625	0.294386	-2.72097	65.9987	321.465	6.85634	80.1544	794.636
3.63194	0.294389	-2.72103	65.999	321.466	6.85617	80.1548	794.63
3.63889	0.294393	-2.72109	65.9994	321.466	6.856	80.1552	794.625
3.64583	0.294396	-2.72115	65.9998	321.466	6.85583	80.1556	794.62
3.65278	0.2944	-2.72121	66.0001	321.466	6.85567	80.156	794.615
3.65972	0.294403	-2.72127	66.0004	321.466	6.85551	80.1563	794.61
3.66667	0.294406	-2.72132	66.0008	321.466	6.85535	80.1567	794.605
3.67361	0.29441	-2.72138	66.0011	321.466	6.85519	80.1571	794.6
3.68056	0.294413	-2.72144	66.0015	321.466	6.85503	80.1575	794.595
3.6875	0.294416	-2.72149	66.0018	321.466	6.85488	80.1578	794.59
3.69444	0.294419	-2.72155	66.0021	321.467	6.85473	80.1582	794.585
3.70139	0.294423	-2.7216	66.0024	321.467	6.85458	80.1586	794.581
3.70833	0.294426	-2.72165	66.0027	321.467	6.85443	80.1589	794.576
3.71528	0.294429	-2.7217	66.0031	321.467	6.85428	80.1593	794.572
3.72222	0.294433	-2.72176	66.0034	321.467	6.85414	80.1596	794.567
3.72917	0.294436	-2.72181	66.0037	321.467	6.854	80.1599	794.563
3.73611	0.294439	-2.72186	66.004	321.467	6.85386	80.1603	794.559
3.74306	0.294442	-2.72191	66.0043	321.467	6.85372	80.1606	794.554
3.75	0.294445	-2.72196	66.0046	321.467	6.85358	80.1609	794.55
3.75694	0.294449	-2.722	66.0049	321.467	6.85345	80.1613	794.546
3.76389	0.294452	-2.72205	66.0051	321.468	6.85332	80.1616	794.542
3.77083	0.294455	-2.7221	66.0054	321.468	6.85319	80.1619	794.538
3.77778	0.294458	-2.72214	66.0057	321.468	6.85306	80.1622	794.534
3.78472	0.294461	-2.72219	66.006	321.468	6.85293	80.1625	794.53
3.79167	0.294464	-2.72224	66.0062	321.468	6.8528	80.1629	794.527
3.79861	0.294468	-2.72228	66.0065	321.468	6.85268	80.1632	794.523
3.80556	0.294471	-2.72232	66.0068	321.468	6.85256	80.1635	794.519
3.8125	0.294474	-2.72237	66.007	321.468	6.85244	80.1638	794.516
3.81944	0.294477	-2.72241	66.0073	321.468	6.85232	80.1641	794.512
3.82639	0.29448	-2.72245	66.0076	321.469	6.8522	80.1644	794.509
3.83333	0.294483	-2.72249	66.0078	321.469	6.85209	80.1646	794.505
3.84028	0.294486	-2.72254	66.0081	321.469	6.85197	80.1649	794.502
3.84722	0.294489	-2.72258	66.0083	321.469	6.85186	80.1652	794.498
3.85417	0.294492	-2.72262	66.0085	321.469	6.85175	80.1655	794.495
3.86111	0.294495	-2.72266	66.0088	321.469	6.85164	80.1658	794.492
3.86806	0.294498	-2.72269	66.009	321.469	6.85153	80.1661	794.489
3.875	0.294501	-2.72273	66.0093	321.469	6.85142	80.1663	794.486
3.88194	0.294504	-2.72277	66.0095	321.469	6.85132	80.1666	794.482
3.88889	0.294507	-2.72281	66.0097	321.469	6.85121	80.1669	794.479
3.89583	0.29451	-2.72285	66.0099	321.47	6.85111	80.1671	794.476
3.90278	0.294513	-2.72288	66.0102	321.47	6.85101	80.1674	794.474
3.90972	0.294516	-2.72292	66.0104	321.47	6.85091	80.1676	794.471
3.91667	0.294519	-2.72295	66.0106	321.47	6.85081	80.1679	794.468
3.92361	0.294522	-2.72299	66.0108	321.47	6.85071	80.1681	794.465
3.93056	0.294525	-2.72302	66.011	321.47	6.85062	80.1684	794.462
3.9375	0.294528	-2.72306	66.0112	321.47	6.85052	80.1686	794.46
3.94444	0.294531	-2.72309	66.0114	321.47	6.85043	80.1689	794.457
3.95139	0.294534	-2.72312	66.0117	321.47	6.85034	80.1691	794.454
3.95833	0.294537	-2.72316	66.0119	321.47	6.85025	80.1694	794.452
3.96528	0.29454	-2.72319	66.0121	321.471	6.85016	80.1696	794.449
3.97222	0.294543	-2.72322	66.0123	321.471	6.85007	80.1698	794.447
3.97917	0.294546	-2.72325	66.0124	321.471	6.84998	80.1701	794.444
3.98611	0.294548	-2.72328	66.0126	321.471	6.8499	80.1703	794.442
3.99306	0.294551	-2.72331	66.0128	321.471	6.84981	80.1705	794.439
4	0.294554	-2.72334	66.013	321.471	6.84973	80.1708	794.437
